response,stim,rt,trial,feedback,subj_code,q_init
0,hoarding,0.894868813644394,1,1,an_ve_1958_08_15_010_f,0.5
0,hoarding,0.425,2,1,an_ve_1958_08_15_010_f,0.5
1,hoarding,1.255,3,0,an_ve_1958_08_15_010_f,0.5
1,hoarding,0.571,4,1,an_ve_1958_08_15_010_f,0.5
1,hoarding,0.482,5,1,an_ve_1958_08_15_010_f,0.5
1,hoarding,1.039,6,0,an_ve_1958_08_15_010_f,0.5
1,hoarding,0.508,7,0,an_ve_1958_08_15_010_f,0.5
1,hoarding,0.974,8,0,an_ve_1958_08_15_010_f,0.5
1,hoarding,0.621,9,0,an_ve_1958_08_15_010_f,0.5
1,hoarding,0.554,10,1,an_ve_1958_08_15_010_f,0.5
1,hoarding,0.427,11,0,an_ve_1958_08_15_010_f,0.5
1,hoarding,0.576,12,0,an_ve_1958_08_15_010_f,0.5
0,hoarding,1.233,13,1,an_ve_1958_08_15_010_f,0.5
0,hoarding,0.429,14,0,an_ve_1958_08_15_010_f,0.5
0,hoarding,0.516,15,1,an_ve_1958_08_15_010_f,0.5
0,hoarding,0.541,16,0,an_ve_1958_08_15_010_f,0.5
1,hoarding,0.545,17,0,an_ve_1958_08_15_010_f,0.5
1,hoarding,0.423,18,0,an_ve_1958_08_15_010_f,0.5
0,hoarding,0.463,19,1,an_ve_1958_08_15_010_f,0.5
1,hoarding,0.69,20,0,an_ve_1958_08_15_010_f,0.5
1,hoarding,0.42,21,0,an_ve_1958_08_15_010_f,0.5
1,hoarding,1.086,22,0,an_ve_1958_08_15_010_f,0.5
1,hoarding,0.491,23,0,an_ve_1958_08_15_010_f,0.5
1,hoarding,0.537,24,0,an_ve_1958_08_15_010_f,0.5
1,hoarding,0.659,25,0,an_ve_1958_08_15_010_f,0.5
0,hoarding,1.087,26,1,an_ve_1958_08_15_010_f,0.5
0,hoarding,0.458,27,0,an_ve_1958_08_15_010_f,0.5
0,hoarding,0.431,28,0,an_ve_1958_08_15_010_f,0.5
0,hoarding,0.966,29,0,an_ve_1958_08_15_010_f,0.5
1,hoarding,0.883,30,0,an_ve_1958_08_15_010_f,0.5
1,hoarding,1.159,31,1,an_ve_1958_08_15_010_f,0.5
1,hoarding,0.72,32,0,an_ve_1958_08_15_010_f,0.5
1,hoarding,1.391,33,0,an_ve_1958_08_15_010_f,0.5
0,hoarding,1.207,34,1,an_ve_1958_08_15_010_f,0.5
0,hoarding,1.101,35,1,an_ve_1958_08_15_010_f,0.5
0,hoarding,0.485,36,0,an_ve_1958_08_15_010_f,0.5
0,hoarding,0.885,37,1,an_ve_1958_08_15_010_f,0.5
0,hoarding,1.056,38,1,an_ve_1958_08_15_010_f,0.5
0,hoarding,0.841,39,0,an_ve_1958_08_15_010_f,0.5
0,hoarding,0.5,40,0,an_ve_1958_08_15_010_f,0.5
0,hoarding,0.711,41,0,an_ve_1958_08_15_010_f,0.5
0,hoarding,1.169,42,0,an_ve_1958_08_15_010_f,0.5
0,hoarding,0.754,43,0,an_ve_1958_08_15_010_f,0.5
0,hoarding,1.392,44,0,an_ve_1958_08_15_010_f,0.5
0,hoarding,1.645,45,1,an_ve_1958_08_15_010_f,0.5
0,hoarding,0.417,46,0,an_ve_1958_08_15_010_f,0.5
0,hoarding,1.272,47,1,an_ve_1958_08_15_010_f,0.5
0,hoarding,0.468,48,1,an_ve_1958_08_15_010_f,0.5
0,hoarding,0.727,49,0,an_ve_1958_08_15_010_f,0.5
1,hoarding,0.656,50,0,an_ve_1958_08_15_010_f,0.5
1,hoarding,1.206,51,1,an_ve_1958_08_15_010_f,0.5
1,hoarding,1.93,52,0,an_ve_1958_08_15_010_f,0.5
1,hoarding,0.849,53,1,an_ve_1958_08_15_010_f,0.5
1,hoarding,0.509,54,1,an_ve_1958_08_15_010_f,0.5
1,hoarding,0.786,55,1,an_ve_1958_08_15_010_f,0.5
0,hoarding,1.014,56,1,an_ve_1958_08_15_010_f,0.5
0,hoarding,1.118,57,0,an_ve_1958_08_15_010_f,0.5
0,hoarding,0.999,58,1,an_ve_1958_08_15_010_f,0.5
0,hoarding,0.675,59,0,an_ve_1958_08_15_010_f,0.5
0,hoarding,0.47,60,0,an_ve_1958_08_15_010_f,0.5
0,hoarding,0.867,61,0,an_ve_1958_08_15_010_f,0.5
0,hoarding,1.535,62,0,an_ve_1958_08_15_010_f,0.5
0,hoarding,0.357,63,0,an_ve_1958_08_15_010_f,0.5
1,hoarding,0.778,64,0,an_ve_1958_08_15_010_f,0.5
0,hoarding,0.726,65,0,an_ve_1958_08_15_010_f,0.5
0,hoarding,0.578,66,0,an_ve_1958_08_15_010_f,0.5
0,hoarding,0.696,67,0,an_ve_1958_08_15_010_f,0.5
1,hoarding,1.013,68,1,an_ve_1958_08_15_010_f,0.5
0,hoarding,0.608,69,0,an_ve_1958_08_15_010_f,0.5
0,hoarding,0.551,70,1,an_ve_1958_08_15_010_f,0.5
1,hoarding,0.569,71,1,an_ve_1958_08_15_010_f,0.5
1,hoarding,1.042,72,1,an_ve_1958_08_15_010_f,0.5
1,hoarding,1.403,73,1,an_ve_1958_08_15_010_f,0.5
0,hoarding,2.019,74,1,an_ve_1958_08_15_010_f,0.5
0,hoarding,0.691,75,0,an_ve_1958_08_15_010_f,0.5
1,hoarding,0.665,76,0,an_ve_1958_08_15_010_f,0.5
1,hoarding,0.96,77,1,an_ve_1958_08_15_010_f,0.5
1,hoarding,1.596,78,0,an_ve_1958_08_15_010_f,0.5
1,hoarding,0.877482124253254,79,1,an_ve_1958_08_15_010_f,0.5
0,hoarding,1.135,80,0,an_ve_1958_08_15_010_f,0.5
0,hoarding,0.376,81,0,an_ve_1958_08_15_010_f,0.5
1,hoarding,0.65,82,1,an_ve_1958_08_15_010_f,0.5
0,hoarding,0.595,83,0,an_ve_1958_08_15_010_f,0.5
1,hoarding,0.54,84,1,an_ve_1958_08_15_010_f,0.5
1,hoarding,0.413,85,1,an_ve_1958_08_15_010_f,0.5
0,hoarding,0.803,86,1,an_ve_1958_08_15_010_f,0.5
0,hoarding,0.938,87,1,an_ve_1958_08_15_010_f,0.5
1,hoarding,0.586,88,0,an_ve_1958_08_15_010_f,0.5
1,hoarding,0.956,89,0,an_ve_1958_08_15_010_f,0.5
0,hoarding,0.688,90,0,an_ve_1958_08_15_010_f,0.5
0,hoarding,0.741,91,1,an_ve_1958_08_15_010_f,0.5
1,hoarding,0.493,92,0,an_ve_1958_08_15_010_f,0.5
1,hoarding,1.466,93,0,an_ve_1958_08_15_010_f,0.5
1,hoarding,0.604,94,0,an_ve_1958_08_15_010_f,0.5
0,hoarding,1.231,95,0,an_ve_1958_08_15_010_f,0.5
1,hoarding,0.886,96,0,an_ve_1958_08_15_010_f,0.5
1,hoarding,0.952,97,0,an_ve_1958_08_15_010_f,0.5
1,hoarding,0.808,98,0,an_ve_1958_08_15_010_f,0.5
1,hoarding,0.663,99,1,an_ve_1958_08_15_010_f,0.5
1,hoarding,1.002,100,0,an_ve_1958_08_15_010_f,0.5
1,hoarding,1.015,101,1,an_ve_1958_08_15_010_f,0.5
1,hoarding,0.583,102,1,an_ve_1958_08_15_010_f,0.5
1,hoarding,0.783,103,1,an_ve_1958_08_15_010_f,0.5
0,hoarding,1.082,104,1,an_ve_1958_08_15_010_f,0.5
1,hoarding,0.871,105,0,an_ve_1958_08_15_010_f,0.5
1,hoarding,0.994,106,1,an_ve_1958_08_15_010_f,0.5
1,hoarding,0.625,107,0,an_ve_1958_08_15_010_f,0.5
0,hoarding,0.912,108,1,an_ve_1958_08_15_010_f,0.5
0,hoarding,0.673,109,1,an_ve_1958_08_15_010_f,0.5
0,hoarding,1.133,110,1,an_ve_1958_08_15_010_f,0.5
1,hoarding,0.949,111,0,an_ve_1958_08_15_010_f,0.5
0,hoarding,0.66,112,1,an_ve_1958_08_15_010_f,0.5
0,hoarding,0.619,113,1,an_ve_1958_08_15_010_f,0.5
0,hoarding,0.672,114,1,an_ve_1958_08_15_010_f,0.5
0,hoarding,0.763,115,1,an_ve_1958_08_15_010_f,0.5
0,hoarding,1.914,116,1,an_ve_1958_08_15_010_f,0.5
1,hoarding,0.809,117,0,an_ve_1958_08_15_010_f,0.5
1,hoarding,0.984,118,0,an_ve_1958_08_15_010_f,0.5
1,hoarding,0.485,119,0,an_ve_1958_08_15_010_f,0.5
1,hoarding,0.441,120,0,an_ve_1958_08_15_010_f,0.5
1,hoarding,0.599,121,0,an_ve_1958_08_15_010_f,0.5
1,hoarding,1.098,122,1,an_ve_1958_08_15_010_f,0.5
1,hoarding,0.447,123,0,an_ve_1958_08_15_010_f,0.5
0,hoarding,0.556,124,0,an_ve_1958_08_15_010_f,0.5
0,hoarding,0.974,125,1,an_ve_1958_08_15_010_f,0.5
1,hoarding,0.444,126,1,an_ve_1958_08_15_010_f,0.5
1,hoarding,0.625,127,0,an_ve_1958_08_15_010_f,0.5
1,hoarding,0.604,128,1,an_ve_1958_08_15_010_f,0.5
1,hoarding,0.564,129,0,an_ve_1958_08_15_010_f,0.5
0,hoarding,0.813,130,1,an_ve_1958_08_15_010_f,0.5
1,hoarding,0.683,131,1,an_ve_1958_08_15_010_f,0.5
1,hoarding,1.167,132,1,an_ve_1958_08_15_010_f,0.5
1,hoarding,0.83,133,1,an_ve_1958_08_15_010_f,0.5
1,hoarding,0.922,134,1,an_ve_1958_08_15_010_f,0.5
1,hoarding,1.407,135,0,an_ve_1958_08_15_010_f,0.5
0,hoarding,0.435,136,0,an_ve_1958_08_15_010_f,0.5
0,hoarding,0.968,137,1,an_ve_1958_08_15_010_f,0.5
0,hoarding,1.43,138,0,an_ve_1958_08_15_010_f,0.5
0,hoarding,0.931,139,0,an_ve_1958_08_15_010_f,0.5
0,hoarding,1.197,140,0,an_ve_1958_08_15_010_f,0.5
0,hoarding,1.46,141,0,an_ve_1958_08_15_010_f,0.5
0,hoarding,1.032,142,0,an_ve_1958_08_15_010_f,0.5
0,hoarding,0.715,143,0,an_ve_1958_08_15_010_f,0.5
0,hoarding,0.949,144,0,an_ve_1958_08_15_010_f,0.5
0,hoarding,0.925,145,1,an_ve_1958_08_15_010_f,0.5
1,hoarding,1.159,146,1,an_ve_1958_08_15_010_f,0.5
1,hoarding,0.333,147,1,an_ve_1958_08_15_010_f,0.5
0,hoarding,0.589,148,0,an_ve_1958_08_15_010_f,0.5
0,hoarding,0.863,149,1,an_ve_1958_08_15_010_f,0.5
0,hoarding,0.851,150,0,an_ve_1958_08_15_010_f,0.5
0,hoarding,0.813,151,0,an_ve_1958_08_15_010_f,0.5
0,hoarding,0.644,152,0,an_ve_1958_08_15_010_f,0.5
0,hoarding,0.736,153,0,an_ve_1958_08_15_010_f,0.5
0,hoarding,0.969,154,1,an_ve_1958_08_15_010_f,0.5
0,hoarding,0.432,155,0,an_ve_1958_08_15_010_f,0.5
0,hoarding,0.679,156,0,an_ve_1958_08_15_010_f,0.5
0,hoarding,0.563,157,0,an_ve_1958_08_15_010_f,0.5
0,hoarding,0.354,158,0,an_ve_1958_08_15_010_f,0.5
1,hoarding,0.643,159,0,an_ve_1958_08_15_010_f,0.5
1,hoarding,0.737,160,1,an_ve_1958_08_15_010_f,0.5
1,hoarding,0.971531972345032,1,1,ma_za_1959_12_04_04_f,0.5
0,hoarding,0.894589339741859,2,1,ma_za_1959_12_04_04_f,0.5
0,hoarding,0.894309865848707,3,1,ma_za_1959_12_04_04_f,0.5
1,hoarding,1.071,4,0,ma_za_1959_12_04_04_f,0.5
1,hoarding,0.733,5,0,ma_za_1959_12_04_04_f,0.5
0,hoarding,2.049,6,1,ma_za_1959_12_04_04_f,0.5
0,hoarding,0.954,7,0,ma_za_1959_12_04_04_f,0.5
1,hoarding,0.801,8,0,ma_za_1959_12_04_04_f,0.5
0,hoarding,0.606,9,1,ma_za_1959_12_04_04_f,0.5
1,hoarding,0.185,10,0,ma_za_1959_12_04_04_f,0.5
0,hoarding,0.945,11,1,ma_za_1959_12_04_04_f,0.5
1,hoarding,0.391,12,0,ma_za_1959_12_04_04_f,0.5
1,hoarding,0.891,13,0,ma_za_1959_12_04_04_f,0.5
1,hoarding,0.547,14,0,ma_za_1959_12_04_04_f,0.5
1,hoarding,0.92510732139487,15,0,ma_za_1959_12_04_04_f,0.5
1,hoarding,0.638,16,1,ma_za_1959_12_04_04_f,0.5
1,hoarding,1.399,17,0,ma_za_1959_12_04_04_f,0.5
0,hoarding,1.265,18,1,ma_za_1959_12_04_04_f,0.5
1,hoarding,0.427,19,0,ma_za_1959_12_04_04_f,0.5
0,hoarding,0.733,20,0,ma_za_1959_12_04_04_f,0.5
1,hoarding,0.403,21,0,ma_za_1959_12_04_04_f,0.5
1,hoarding,0.979,22,0,ma_za_1959_12_04_04_f,0.5
1,hoarding,0.87,23,1,ma_za_1959_12_04_04_f,0.5
1,hoarding,0.34,24,1,ma_za_1959_12_04_04_f,0.5
1,hoarding,0.689,25,0,ma_za_1959_12_04_04_f,0.5
0,hoarding,0.719,26,0,ma_za_1959_12_04_04_f,0.5
1,hoarding,0.454,27,0,ma_za_1959_12_04_04_f,0.5
1,hoarding,0.386,28,0,ma_za_1959_12_04_04_f,0.5
1,hoarding,0.411,29,1,ma_za_1959_12_04_04_f,0.5
0,hoarding,0.53,30,1,ma_za_1959_12_04_04_f,0.5
0,hoarding,0.401,31,0,ma_za_1959_12_04_04_f,0.5
1,hoarding,0.522,32,1,ma_za_1959_12_04_04_f,0.5
0,hoarding,0.885925648763282,33,1,ma_za_1959_12_04_04_f,0.5
0,hoarding,0.551,34,1,ma_za_1959_12_04_04_f,0.5
0,hoarding,0.261,35,0,ma_za_1959_12_04_04_f,0.5
1,hoarding,0.221,36,0,ma_za_1959_12_04_04_f,0.5
0,hoarding,0.665,37,1,ma_za_1959_12_04_04_f,0.5
1,hoarding,1.124,38,0,ma_za_1959_12_04_04_f,0.5
1,hoarding,0.957,39,0,ma_za_1959_12_04_04_f,0.5
0,hoarding,0.451,40,0,ma_za_1959_12_04_04_f,0.5
0,hoarding,0.913428724941162,41,0,ma_za_1959_12_04_04_f,0.5
1,hoarding,0.544,42,1,ma_za_1959_12_04_04_f,0.5
1,hoarding,0.452,43,0,ma_za_1959_12_04_04_f,0.5
1,hoarding,0.475,44,0,ma_za_1959_12_04_04_f,0.5
1,hoarding,0.572,45,1,ma_za_1959_12_04_04_f,0.5
1,hoarding,0.659,46,1,ma_za_1959_12_04_04_f,0.5
1,hoarding,0.425,47,0,ma_za_1959_12_04_04_f,0.5
0,hoarding,0.963,48,0,ma_za_1959_12_04_04_f,0.5
0,hoarding,0.488,49,0,ma_za_1959_12_04_04_f,0.5
1,hoarding,0.431,50,0,ma_za_1959_12_04_04_f,0.5
1,hoarding,0.712,51,0,ma_za_1959_12_04_04_f,0.5
0,hoarding,0.589,52,0,ma_za_1959_12_04_04_f,0.5
1,hoarding,0.608,53,1,ma_za_1959_12_04_04_f,0.5
1,hoarding,0.457,54,1,ma_za_1959_12_04_04_f,0.5
1,hoarding,0.516,55,0,ma_za_1959_12_04_04_f,0.5
1,hoarding,0.628,56,0,ma_za_1959_12_04_04_f,0.5
1,hoarding,0.742,57,1,ma_za_1959_12_04_04_f,0.5
1,hoarding,1.106,58,1,ma_za_1959_12_04_04_f,0.5
1,hoarding,0.863,59,1,ma_za_1959_12_04_04_f,0.5
1,hoarding,0.655,60,1,ma_za_1959_12_04_04_f,0.5
1,hoarding,0.638,61,0,ma_za_1959_12_04_04_f,0.5
1,hoarding,0.608,62,1,ma_za_1959_12_04_04_f,0.5
1,hoarding,0.783,63,0,ma_za_1959_12_04_04_f,0.5
1,hoarding,0.556,64,1,ma_za_1959_12_04_04_f,0.5
1,hoarding,0.773,65,1,ma_za_1959_12_04_04_f,0.5
1,hoarding,0.702,66,0,ma_za_1959_12_04_04_f,0.5
1,hoarding,0.477,67,1,ma_za_1959_12_04_04_f,0.5
1,hoarding,0.541,68,0,ma_za_1959_12_04_04_f,0.5
1,hoarding,0.880276863269219,69,1,ma_za_1959_12_04_04_f,0.5
1,hoarding,0.878,70,1,ma_za_1959_12_04_04_f,0.5
1,hoarding,0.881,71,1,ma_za_1959_12_04_04_f,0.5
1,hoarding,0.684,72,1,ma_za_1959_12_04_04_f,0.5
1,hoarding,0.803,73,1,ma_za_1959_12_04_04_f,0.5
1,hoarding,0.712,74,1,ma_za_1959_12_04_04_f,0.5
1,hoarding,0.592,75,1,ma_za_1959_12_04_04_f,0.5
1,hoarding,0.415,76,0,ma_za_1959_12_04_04_f,0.5
1,hoarding,0.469,77,1,ma_za_1959_12_04_04_f,0.5
1,hoarding,0.515,78,1,ma_za_1959_12_04_04_f,0.5
1,hoarding,0.208,79,1,ma_za_1959_12_04_04_f,0.5
1,hoarding,0.459,80,1,ma_za_1959_12_04_04_f,0.5
0,hoarding,0.439,81,0,ma_za_1959_12_04_04_f,0.5
1,hoarding,0.575,82,0,ma_za_1959_12_04_04_f,0.5
0,hoarding,0.768,83,1,ma_za_1959_12_04_04_f,0.5
1,hoarding,0.534,84,1,ma_za_1959_12_04_04_f,0.5
1,hoarding,0.609,85,0,ma_za_1959_12_04_04_f,0.5
0,hoarding,0.543,86,1,ma_za_1959_12_04_04_f,0.5
1,hoarding,0.635,87,0,ma_za_1959_12_04_04_f,0.5
1,hoarding,0.396,88,0,ma_za_1959_12_04_04_f,0.5
1,hoarding,0.537,89,0,ma_za_1959_12_04_04_f,0.5
0,hoarding,1.1,90,1,ma_za_1959_12_04_04_f,0.5
0,hoarding,0.665,91,1,ma_za_1959_12_04_04_f,0.5
1,hoarding,0.698,92,0,ma_za_1959_12_04_04_f,0.5
0,hoarding,0.767,93,1,ma_za_1959_12_04_04_f,0.5
1,hoarding,0.482,94,1,ma_za_1959_12_04_04_f,0.5
0,hoarding,0.767,95,1,ma_za_1959_12_04_04_f,0.5
1,hoarding,0.531,96,0,ma_za_1959_12_04_04_f,0.5
0,hoarding,0.47,97,1,ma_za_1959_12_04_04_f,0.5
0,hoarding,0.371,98,1,ma_za_1959_12_04_04_f,0.5
1,hoarding,0.555,99,1,ma_za_1959_12_04_04_f,0.5
0,hoarding,0.694,100,1,ma_za_1959_12_04_04_f,0.5
0,hoarding,0.866921423390919,101,1,ma_za_1959_12_04_04_f,0.5
0,hoarding,0.448,102,0,ma_za_1959_12_04_04_f,0.5
0,hoarding,0.478,103,1,ma_za_1959_12_04_04_f,0.5
0,hoarding,0.522,104,1,ma_za_1959_12_04_04_f,0.5
0,hoarding,0.602,105,1,ma_za_1959_12_04_04_f,0.5
1,hoarding,0.504,106,0,ma_za_1959_12_04_04_f,0.5
0,hoarding,0.437,107,0,ma_za_1959_12_04_04_f,0.5
0,hoarding,0.558,108,0,ma_za_1959_12_04_04_f,0.5
0,hoarding,0.463,109,0,ma_za_1959_12_04_04_f,0.5
1,hoarding,0.381,110,0,ma_za_1959_12_04_04_f,0.5
0,hoarding,1.787,111,1,ma_za_1959_12_04_04_f,0.5
0,hoarding,0.967,112,0,ma_za_1959_12_04_04_f,0.5
1,hoarding,1.627,113,1,ma_za_1959_12_04_04_f,0.5
1,hoarding,0.897439405053313,114,0,ma_za_1959_12_04_04_f,0.5
1,hoarding,0.353,115,1,ma_za_1959_12_04_04_f,0.5
1,hoarding,1.003,116,0,ma_za_1959_12_04_04_f,0.5
0,hoarding,0.529,117,0,ma_za_1959_12_04_04_f,0.5
1,hoarding,0.92,118,0,ma_za_1959_12_04_04_f,0.5
1,hoarding,0.625,119,0,ma_za_1959_12_04_04_f,0.5
0,hoarding,0.689,120,1,ma_za_1959_12_04_04_f,0.5
0,hoarding,0.626,121,0,ma_za_1959_12_04_04_f,0.5
1,hoarding,0.998,122,1,ma_za_1959_12_04_04_f,0.5
1,hoarding,0.682,123,1,ma_za_1959_12_04_04_f,0.5
1,hoarding,0.925,124,1,ma_za_1959_12_04_04_f,0.5
1,hoarding,0.864626324727273,125,1,ma_za_1959_12_04_04_f,0.5
0,hoarding,0.779,126,0,ma_za_1959_12_04_04_f,0.5
1,hoarding,0.604,127,1,ma_za_1959_12_04_04_f,0.5
1,hoarding,0.5,128,1,ma_za_1959_12_04_04_f,0.5
0,hoarding,0.591,129,0,ma_za_1959_12_04_04_f,0.5
0,hoarding,1.085,130,1,ma_za_1959_12_04_04_f,0.5
1,hoarding,2.293,131,1,ma_za_1959_12_04_04_f,0.5
0,hoarding,0.542,132,1,ma_za_1959_12_04_04_f,0.5
1,hoarding,0.414,133,0,ma_za_1959_12_04_04_f,0.5
0,hoarding,0.81,134,1,ma_za_1959_12_04_04_f,0.5
1,hoarding,0.992,135,1,ma_za_1959_12_04_04_f,0.5
0,hoarding,0.579,136,0,ma_za_1959_12_04_04_f,0.5
1,hoarding,0.524,137,0,ma_za_1959_12_04_04_f,0.5
1,hoarding,0.412,138,1,ma_za_1959_12_04_04_f,0.5
1,hoarding,0.419,139,0,ma_za_1959_12_04_04_f,0.5
1,hoarding,0.497,140,0,ma_za_1959_12_04_04_f,0.5
1,hoarding,0.557,141,0,ma_za_1959_12_04_04_f,0.5
1,hoarding,0.399,142,1,ma_za_1959_12_04_04_f,0.5
0,hoarding,0.491,143,0,ma_za_1959_12_04_04_f,0.5
1,hoarding,1.137,144,1,ma_za_1959_12_04_04_f,0.5
1,hoarding,0.826,145,1,ma_za_1959_12_04_04_f,0.5
1,hoarding,0.644,146,1,ma_za_1959_12_04_04_f,0.5
1,hoarding,1.221,147,1,ma_za_1959_12_04_04_f,0.5
1,hoarding,0.823,148,1,ma_za_1959_12_04_04_f,0.5
0,hoarding,1.678,149,0,ma_za_1959_12_04_04_f,0.5
1,hoarding,0.73,150,1,ma_za_1959_12_04_04_f,0.5
1,hoarding,0.709,151,1,ma_za_1959_12_04_04_f,0.5
1,hoarding,1.031,152,0,ma_za_1959_12_04_04_f,0.5
1,hoarding,0.691,153,1,ma_za_1959_12_04_04_f,0.5
1,hoarding,0.519,154,1,ma_za_1959_12_04_04_f,0.5
1,hoarding,0.912,155,0,ma_za_1959_12_04_04_f,0.5
1,hoarding,0.501,156,1,ma_za_1959_12_04_04_f,0.5
1,hoarding,1.046,157,1,ma_za_1959_12_04_04_f,0.5
1,hoarding,0.466,158,0,ma_za_1959_12_04_04_f,0.5
1,hoarding,0.855124212050475,159,1,ma_za_1959_12_04_04_f,0.5
1,hoarding,0.651,160,1,ma_za_1959_12_04_04_f,0.5
0,hoarding,0.894868813644394,1,1,fa_fa_1974_05_14_03_f,0.5
1,hoarding,0.928740482127822,2,0,fa_fa_1974_05_14_03_f,0.5
0,hoarding,0.894309865839324,3,1,fa_fa_1974_05_14_03_f,0.5
0,hoarding,1.533,4,1,fa_fa_1974_05_14_03_f,0.5
0,hoarding,0.893750918034255,5,1,fa_fa_1974_05_14_03_f,0.5
0,hoarding,1.503,6,1,fa_fa_1974_05_14_03_f,0.5
1,hoarding,0.927343112615148,7,0,fa_fa_1974_05_14_03_f,0.5
1,hoarding,2.273,8,1,fa_fa_1974_05_14_03_f,0.5
1,hoarding,1.268,9,1,fa_fa_1974_05_14_03_f,0.5
1,hoarding,1.939,10,0,fa_fa_1974_05_14_03_f,0.5
1,hoarding,1.568,11,0,fa_fa_1974_05_14_03_f,0.5
1,hoarding,1.898,12,0,fa_fa_1974_05_14_03_f,0.5
1,hoarding,0.92566626919994,13,0,fa_fa_1974_05_14_03_f,0.5
0,hoarding,1.463,14,1,fa_fa_1974_05_14_03_f,0.5
1,hoarding,2.477,15,0,fa_fa_1974_05_14_03_f,0.5
0,hoarding,1.631,16,1,fa_fa_1974_05_14_03_f,0.5
0,hoarding,0.62,17,0,fa_fa_1974_05_14_03_f,0.5
1,hoarding,1.451,18,0,fa_fa_1974_05_14_03_f,0.5
0,hoarding,0.889838283398768,19,1,fa_fa_1974_05_14_03_f,0.5
1,hoarding,0.92,20,0,fa_fa_1974_05_14_03_f,0.5
0,hoarding,1.651,21,1,fa_fa_1974_05_14_03_f,0.5
0,hoarding,0.799,22,1,fa_fa_1974_05_14_03_f,0.5
0,hoarding,1.135,23,1,fa_fa_1974_05_14_03_f,0.5
0,hoarding,0.516,24,0,fa_fa_1974_05_14_03_f,0.5
1,hoarding,0.509,25,0,fa_fa_1974_05_14_03_f,0.5
1,hoarding,1.081,26,0,fa_fa_1974_05_14_03_f,0.5
0,hoarding,1.081,27,1,fa_fa_1974_05_14_03_f,0.5
0,hoarding,0.455,28,0,fa_fa_1974_05_14_03_f,0.5
1,hoarding,0.381,29,0,fa_fa_1974_05_14_03_f,0.5
0,hoarding,0.66,30,1,fa_fa_1974_05_14_03_f,0.5
0,hoarding,1.138,31,1,fa_fa_1974_05_14_03_f,0.5
0,hoarding,0.84,32,0,fa_fa_1974_05_14_03_f,0.5
1,hoarding,0.920076791149244,33,0,fa_fa_1974_05_14_03_f,0.5
1,hoarding,0.954,34,0,fa_fa_1974_05_14_03_f,0.5
1,hoarding,1.053,35,0,fa_fa_1974_05_14_03_f,0.5
0,hoarding,0.885087227065061,36,1,fa_fa_1974_05_14_03_f,0.5
1,hoarding,1.986,37,0,fa_fa_1974_05_14_03_f,0.5
0,hoarding,1.414,38,1,fa_fa_1974_05_14_03_f,0.5
0,hoarding,1.839,39,1,fa_fa_1974_05_14_03_f,0.5
0,hoarding,1.223,40,0,fa_fa_1974_05_14_03_f,0.5
0,hoarding,1.107,41,0,fa_fa_1974_05_14_03_f,0.5
1,hoarding,1.833,42,1,fa_fa_1974_05_14_03_f,0.5
1,hoarding,1.627,43,1,fa_fa_1974_05_14_03_f,0.5
0,hoarding,0.912590303224175,44,0,fa_fa_1974_05_14_03_f,0.5
1,hoarding,1.597,45,1,fa_fa_1974_05_14_03_f,0.5
1,hoarding,2.18,46,1,fa_fa_1974_05_14_03_f,0.5
1,hoarding,0.918,47,1,fa_fa_1974_05_14_03_f,0.5
1,hoarding,1.422,48,1,fa_fa_1974_05_14_03_f,0.5
1,hoarding,0.863,49,1,fa_fa_1974_05_14_03_f,0.5
1,hoarding,0.888,50,1,fa_fa_1974_05_14_03_f,0.5
1,hoarding,1.037,51,0,fa_fa_1974_05_14_03_f,0.5
0,hoarding,2.182,52,0,fa_fa_1974_05_14_03_f,0.5
0,hoarding,2.347,53,0,fa_fa_1974_05_14_03_f,0.5
1,hoarding,1.315,54,0,fa_fa_1974_05_14_03_f,0.5
1,hoarding,0.884189497914088,55,1,fa_fa_1974_05_14_03_f,0.5
0,hoarding,2.098,56,1,fa_fa_1974_05_14_03_f,0.5
1,hoarding,1.272,57,1,fa_fa_1974_05_14_03_f,0.5
1,hoarding,1.033,58,1,fa_fa_1974_05_14_03_f,0.5
0,hoarding,1.333,59,0,fa_fa_1974_05_14_03_f,0.5
0,hoarding,0.595,60,0,fa_fa_1974_05_14_03_f,0.5
0,hoarding,2.005,61,0,fa_fa_1974_05_14_03_f,0.5
0,hoarding,1.202,62,0,fa_fa_1974_05_14_03_f,0.5
0,hoarding,2.302,63,1,fa_fa_1974_05_14_03_f,0.5
1,hoarding,1.475,64,1,fa_fa_1974_05_14_03_f,0.5
1,hoarding,1.102,65,0,fa_fa_1974_05_14_03_f,0.5
0,hoarding,1.852,66,0,fa_fa_1974_05_14_03_f,0.5
0,hoarding,1.708,67,0,fa_fa_1974_05_14_03_f,0.5
0,hoarding,1.082,68,0,fa_fa_1974_05_14_03_f,0.5
1,hoarding,1.174,69,1,fa_fa_1974_05_14_03_f,0.5
1,hoarding,0.619,70,0,fa_fa_1974_05_14_03_f,0.5
0,hoarding,1.101,71,0,fa_fa_1974_05_14_03_f,0.5
0,hoarding,1.333,72,1,fa_fa_1974_05_14_03_f,0.5
0,hoarding,0.895,73,0,fa_fa_1974_05_14_03_f,0.5
1,hoarding,1.846,74,1,fa_fa_1974_05_14_03_f,0.5
1,hoarding,1.967,75,1,fa_fa_1974_05_14_03_f,0.5
1,hoarding,1.149,76,0,fa_fa_1974_05_14_03_f,0.5
1,hoarding,1.399,77,0,fa_fa_1974_05_14_03_f,0.5
0,hoarding,1.391,78,1,fa_fa_1974_05_14_03_f,0.5
0,hoarding,1.119,79,1,fa_fa_1974_05_14_03_f,0.5
0,hoarding,0.974,80,1,fa_fa_1974_05_14_03_f,0.5
0,hoarding,1.079,81,0,fa_fa_1974_05_14_03_f,0.5
0,hoarding,1.252,82,1,fa_fa_1974_05_14_03_f,0.5
0,hoarding,0.798,83,1,fa_fa_1974_05_14_03_f,0.5
0,hoarding,1.917,84,1,fa_fa_1974_05_14_03_f,0.5
0,hoarding,0.683,85,1,fa_fa_1974_05_14_03_f,0.5
0,hoarding,0.888,86,0,fa_fa_1974_05_14_03_f,0.5
0,hoarding,1.199,87,0,fa_fa_1974_05_14_03_f,0.5
1,hoarding,0.965,88,1,fa_fa_1974_05_14_03_f,0.5
1,hoarding,0.519,89,0,fa_fa_1974_05_14_03_f,0.5
0,hoarding,1.612,90,1,fa_fa_1974_05_14_03_f,0.5
0,hoarding,1.649,91,1,fa_fa_1974_05_14_03_f,0.5
0,hoarding,1.139,92,1,fa_fa_1974_05_14_03_f,0.5
0,hoarding,1.615,93,0,fa_fa_1974_05_14_03_f,0.5
0,hoarding,1.792,94,0,fa_fa_1974_05_14_03_f,0.5
1,hoarding,1.412,95,0,fa_fa_1974_05_14_03_f,0.5
0,hoarding,1.243,96,1,fa_fa_1974_05_14_03_f,0.5
0,hoarding,1.546,97,1,fa_fa_1974_05_14_03_f,0.5
0,hoarding,1.612,98,1,fa_fa_1974_05_14_03_f,0.5
0,hoarding,0.965,99,0,fa_fa_1974_05_14_03_f,0.5
0,hoarding,0.825,100,0,fa_fa_1974_05_14_03_f,0.5
1,hoarding,0.828,101,0,fa_fa_1974_05_14_03_f,0.5
0,hoarding,2.045,102,0,fa_fa_1974_05_14_03_f,0.5
0,hoarding,1.158,103,1,fa_fa_1974_05_14_03_f,0.5
0,hoarding,1.077,104,1,fa_fa_1974_05_14_03_f,0.5
0,hoarding,0.506,105,1,fa_fa_1974_05_14_03_f,0.5
0,hoarding,0.811,106,1,fa_fa_1974_05_14_03_f,0.5
0,hoarding,0.629,107,1,fa_fa_1974_05_14_03_f,0.5
1,hoarding,1.906,108,1,fa_fa_1974_05_14_03_f,0.5
1,hoarding,1.265,109,0,fa_fa_1974_05_14_03_f,0.5
0,hoarding,0.882,110,1,fa_fa_1974_05_14_03_f,0.5
1,hoarding,0.898277826760917,111,0,fa_fa_1974_05_14_03_f,0.5
1,hoarding,0.985,112,0,fa_fa_1974_05_14_03_f,0.5
0,hoarding,1.683,113,0,fa_fa_1974_05_14_03_f,0.5
0,hoarding,0.63,114,1,fa_fa_1974_05_14_03_f,0.5
0,hoarding,1.603,115,1,fa_fa_1974_05_14_03_f,0.5
0,hoarding,1.311,116,1,fa_fa_1974_05_14_03_f,0.5
0,hoarding,1.178,117,1,fa_fa_1974_05_14_03_f,0.5
0,hoarding,0.968,118,1,fa_fa_1974_05_14_03_f,0.5
0,hoarding,0.92,119,0,fa_fa_1974_05_14_03_f,0.5
0,hoarding,1.938,120,1,fa_fa_1974_05_14_03_f,0.5
0,hoarding,0.858,121,0,fa_fa_1974_05_14_03_f,0.5
0,hoarding,1.013,122,1,fa_fa_1974_05_14_03_f,0.5
0,hoarding,1.619,123,1,fa_fa_1974_05_14_03_f,0.5
0,hoarding,0.924,124,0,fa_fa_1974_05_14_03_f,0.5
1,hoarding,0.847,125,1,fa_fa_1974_05_14_03_f,0.5
0,hoarding,0.865,126,0,fa_fa_1974_05_14_03_f,0.5
0,hoarding,1.328,127,0,fa_fa_1974_05_14_03_f,0.5
0,hoarding,1.675,128,1,fa_fa_1974_05_14_03_f,0.5
1,hoarding,1.077,129,0,fa_fa_1974_05_14_03_f,0.5
0,hoarding,1.01,130,0,fa_fa_1974_05_14_03_f,0.5
1,hoarding,0.803,131,1,fa_fa_1974_05_14_03_f,0.5
0,hoarding,1.161,132,1,fa_fa_1974_05_14_03_f,0.5
0,hoarding,0.463,133,0,fa_fa_1974_05_14_03_f,0.5
1,hoarding,0.65,134,1,fa_fa_1974_05_14_03_f,0.5
1,hoarding,0.481,135,1,fa_fa_1974_05_14_03_f,0.5
1,hoarding,0.846,136,1,fa_fa_1974_05_14_03_f,0.5
1,hoarding,0.589,137,1,fa_fa_1974_05_14_03_f,0.5
0,hoarding,1.265,138,0,fa_fa_1974_05_14_03_f,0.5
0,hoarding,1.761,139,0,fa_fa_1974_05_14_03_f,0.5
0,hoarding,1.028,140,0,fa_fa_1974_05_14_03_f,0.5
0,hoarding,1.368,141,0,fa_fa_1974_05_14_03_f,0.5
1,hoarding,0.722,142,1,fa_fa_1974_05_14_03_f,0.5
0,hoarding,0.535,143,0,fa_fa_1974_05_14_03_f,0.5
0,hoarding,0.493,144,0,fa_fa_1974_05_14_03_f,0.5
1,hoarding,0.525,145,0,fa_fa_1974_05_14_03_f,0.5
1,hoarding,0.309,146,0,fa_fa_1974_05_14_03_f,0.5
1,hoarding,0.791,147,1,fa_fa_1974_05_14_03_f,0.5
1,hoarding,0.468,148,0,fa_fa_1974_05_14_03_f,0.5
0,hoarding,1.046,149,0,fa_fa_1974_05_14_03_f,0.5
1,hoarding,0.72,150,0,fa_fa_1974_05_14_03_f,0.5
0,hoarding,0.278,151,1,fa_fa_1974_05_14_03_f,0.5
0,hoarding,0.339,152,0,fa_fa_1974_05_14_03_f,0.5
1,hoarding,0.665,153,0,fa_fa_1974_05_14_03_f,0.5
1,hoarding,0.401,154,1,fa_fa_1974_05_14_03_f,0.5
1,hoarding,0.52,155,0,fa_fa_1974_05_14_03_f,0.5
0,hoarding,1.29,156,0,fa_fa_1974_05_14_03_f,0.5
1,hoarding,0.908,157,1,fa_fa_1974_05_14_03_f,0.5
0,hoarding,0.988,158,0,fa_fa_1974_05_14_03_f,0.5
1,hoarding,0.91,159,1,fa_fa_1974_05_14_03_f,0.5
1,hoarding,0.605,160,1,fa_fa_1974_05_14_03_f,0.5
0,hoarding,0.913515723250455,1,1,pa_me_1968_07_10_05_f,0.5
0,hoarding,0.727,2,0,pa_me_1968_07_10_05_f,0.5
0,hoarding,0.459,3,1,pa_me_1968_07_10_05_f,0.5
0,hoarding,0.317,4,1,pa_me_1968_07_10_05_f,0.5
0,hoarding,0.322,5,0,pa_me_1968_07_10_05_f,0.5
0,hoarding,0.333,6,1,pa_me_1968_07_10_05_f,0.5
0,hoarding,0.421,7,0,pa_me_1968_07_10_05_f,0.5
0,hoarding,0.367,8,1,pa_me_1968_07_10_05_f,0.5
0,hoarding,0.406,9,1,pa_me_1968_07_10_05_f,0.5
0,hoarding,0.363,10,1,pa_me_1968_07_10_05_f,0.5
0,hoarding,0.357,11,0,pa_me_1968_07_10_05_f,0.5
0,hoarding,0.359,12,0,pa_me_1968_07_10_05_f,0.5
0,hoarding,0.368,13,1,pa_me_1968_07_10_05_f,0.5
0,hoarding,0.306,14,1,pa_me_1968_07_10_05_f,0.5
0,hoarding,0.336,15,1,pa_me_1968_07_10_05_f,0.5
0,hoarding,0.335,16,0,pa_me_1968_07_10_05_f,0.5
0,hoarding,0.358,17,1,pa_me_1968_07_10_05_f,0.5
0,hoarding,0.341,18,0,pa_me_1968_07_10_05_f,0.5
0,hoarding,0.389,19,1,pa_me_1968_07_10_05_f,0.5
0,hoarding,0.422,20,1,pa_me_1968_07_10_05_f,0.5
0,hoarding,0.394,21,1,pa_me_1968_07_10_05_f,0.5
0,hoarding,0.362,22,1,pa_me_1968_07_10_05_f,0.5
0,hoarding,0.37,23,1,pa_me_1968_07_10_05_f,0.5
0,hoarding,0.401,24,1,pa_me_1968_07_10_05_f,0.5
0,hoarding,0.349,25,1,pa_me_1968_07_10_05_f,0.5
0,hoarding,0.362,26,1,pa_me_1968_07_10_05_f,0.5
0,hoarding,0.344,27,1,pa_me_1968_07_10_05_f,0.5
0,hoarding,0.4,28,0,pa_me_1968_07_10_05_f,0.5
0,hoarding,0.438,29,0,pa_me_1968_07_10_05_f,0.5
0,hoarding,0.361,30,1,pa_me_1968_07_10_05_f,0.5
0,hoarding,0.306,31,1,pa_me_1968_07_10_05_f,0.5
0,hoarding,0.269,32,1,pa_me_1968_07_10_05_f,0.5
0,hoarding,0.369,33,1,pa_me_1968_07_10_05_f,0.5
0,hoarding,0.43,34,1,pa_me_1968_07_10_05_f,0.5
0,hoarding,0.381,35,1,pa_me_1968_07_10_05_f,0.5
0,hoarding,0.404,36,1,pa_me_1968_07_10_05_f,0.5
0,hoarding,0.422,37,0,pa_me_1968_07_10_05_f,0.5
0,hoarding,0.365,38,0,pa_me_1968_07_10_05_f,0.5
0,hoarding,0.86,39,0,pa_me_1968_07_10_05_f,0.5
0,hoarding,0.386,40,1,pa_me_1968_07_10_05_f,0.5
0,hoarding,0.356,41,0,pa_me_1968_07_10_05_f,0.5
0,hoarding,0.373,42,0,pa_me_1968_07_10_05_f,0.5
0,hoarding,0.357,43,0,pa_me_1968_07_10_05_f,0.5
0,hoarding,0.42,44,1,pa_me_1968_07_10_05_f,0.5
0,hoarding,0.433,45,1,pa_me_1968_07_10_05_f,0.5
0,hoarding,0.397,46,1,pa_me_1968_07_10_05_f,0.5
0,hoarding,0.358,47,0,pa_me_1968_07_10_05_f,0.5
0,hoarding,0.366,48,0,pa_me_1968_07_10_05_f,0.5
0,hoarding,0.422,49,1,pa_me_1968_07_10_05_f,0.5
0,hoarding,0.407,50,1,pa_me_1968_07_10_05_f,0.5
0,hoarding,0.364,51,0,pa_me_1968_07_10_05_f,0.5
0,hoarding,0.506,52,1,pa_me_1968_07_10_05_f,0.5
0,hoarding,0.408,53,1,pa_me_1968_07_10_05_f,0.5
0,hoarding,0.453,54,1,pa_me_1968_07_10_05_f,0.5
0,hoarding,0.43,55,1,pa_me_1968_07_10_05_f,0.5
0,hoarding,0.383,56,0,pa_me_1968_07_10_05_f,0.5
0,hoarding,0.435,57,0,pa_me_1968_07_10_05_f,0.5
0,hoarding,0.353,58,0,pa_me_1968_07_10_05_f,0.5
0,hoarding,0.386,59,0,pa_me_1968_07_10_05_f,0.5
0,hoarding,0.396,60,1,pa_me_1968_07_10_05_f,0.5
0,hoarding,0.355,61,0,pa_me_1968_07_10_05_f,0.5
0,hoarding,0.383,62,0,pa_me_1968_07_10_05_f,0.5
0,hoarding,0.296,63,0,pa_me_1968_07_10_05_f,0.5
0,hoarding,0.331,64,0,pa_me_1968_07_10_05_f,0.5
0,hoarding,0.312,65,0,pa_me_1968_07_10_05_f,0.5
1,hoarding,0.446,66,1,pa_me_1968_07_10_05_f,0.5
1,hoarding,0.301,67,1,pa_me_1968_07_10_05_f,0.5
1,hoarding,0.311,68,1,pa_me_1968_07_10_05_f,0.5
1,hoarding,0.311,69,0,pa_me_1968_07_10_05_f,0.5
1,hoarding,0.321,70,1,pa_me_1968_07_10_05_f,0.5
1,hoarding,0.332,71,1,pa_me_1968_07_10_05_f,0.5
1,hoarding,0.313,72,1,pa_me_1968_07_10_05_f,0.5
1,hoarding,0.514,73,0,pa_me_1968_07_10_05_f,0.5
1,hoarding,0.384,74,1,pa_me_1968_07_10_05_f,0.5
1,hoarding,0.378,75,1,pa_me_1968_07_10_05_f,0.5
1,hoarding,0.309,76,1,pa_me_1968_07_10_05_f,0.5
1,hoarding,0.351,77,1,pa_me_1968_07_10_05_f,0.5
1,hoarding,0.38,78,1,pa_me_1968_07_10_05_f,0.5
1,hoarding,0.374,79,1,pa_me_1968_07_10_05_f,0.5
1,hoarding,0.32,80,1,pa_me_1968_07_10_05_f,0.5
1,hoarding,0.427,81,0,pa_me_1968_07_10_05_f,0.5
1,hoarding,0.561,82,0,pa_me_1968_07_10_05_f,0.5
1,hoarding,0.843,83,0,pa_me_1968_07_10_05_f,0.5
1,hoarding,0.452,84,0,pa_me_1968_07_10_05_f,0.5
1,hoarding,0.403,85,0,pa_me_1968_07_10_05_f,0.5
1,hoarding,0.295,86,1,pa_me_1968_07_10_05_f,0.5
1,hoarding,0.403,87,0,pa_me_1968_07_10_05_f,0.5
1,hoarding,0.309,88,1,pa_me_1968_07_10_05_f,0.5
1,hoarding,0.395,89,0,pa_me_1968_07_10_05_f,0.5
1,hoarding,0.351,90,0,pa_me_1968_07_10_05_f,0.5
1,hoarding,0.323,91,1,pa_me_1968_07_10_05_f,0.5
1,hoarding,0.297,92,0,pa_me_1968_07_10_05_f,0.5
1,hoarding,0.265,93,1,pa_me_1968_07_10_05_f,0.5
1,hoarding,0.356,94,0,pa_me_1968_07_10_05_f,0.5
1,hoarding,0.332,95,1,pa_me_1968_07_10_05_f,0.5
1,hoarding,0.376,96,0,pa_me_1968_07_10_05_f,0.5
1,hoarding,0.384,97,0,pa_me_1968_07_10_05_f,0.5
1,hoarding,0.31,98,1,pa_me_1968_07_10_05_f,0.5
1,hoarding,0.418,99,0,pa_me_1968_07_10_05_f,0.5
1,hoarding,0.295,100,1,pa_me_1968_07_10_05_f,0.5
1,hoarding,0.395,101,0,pa_me_1968_07_10_05_f,0.5
1,hoarding,0.34,102,0,pa_me_1968_07_10_05_f,0.5
1,hoarding,0.353,103,0,pa_me_1968_07_10_05_f,0.5
1,hoarding,0.345,104,0,pa_me_1968_07_10_05_f,0.5
0,hoarding,0.308,105,0,pa_me_1968_07_10_05_f,0.5
0,hoarding,0.317,106,1,pa_me_1968_07_10_05_f,0.5
0,hoarding,0.374,107,1,pa_me_1968_07_10_05_f,0.5
0,hoarding,0.315,108,0,pa_me_1968_07_10_05_f,0.5
0,hoarding,0.271,109,1,pa_me_1968_07_10_05_f,0.5
0,hoarding,0.39,110,1,pa_me_1968_07_10_05_f,0.5
0,hoarding,0.308,111,1,pa_me_1968_07_10_05_f,0.5
0,hoarding,0.407,112,0,pa_me_1968_07_10_05_f,0.5
0,hoarding,0.304,113,1,pa_me_1968_07_10_05_f,0.5
0,hoarding,0.364,114,1,pa_me_1968_07_10_05_f,0.5
0,hoarding,0.324,115,0,pa_me_1968_07_10_05_f,0.5
0,hoarding,0.419,116,1,pa_me_1968_07_10_05_f,0.5
0,hoarding,0.429,117,1,pa_me_1968_07_10_05_f,0.5
0,hoarding,0.384,118,0,pa_me_1968_07_10_05_f,0.5
0,hoarding,0.313,119,1,pa_me_1968_07_10_05_f,0.5
0,hoarding,0.437,120,1,pa_me_1968_07_10_05_f,0.5
0,hoarding,0.355,121,0,pa_me_1968_07_10_05_f,0.5
0,hoarding,0.311,122,0,pa_me_1968_07_10_05_f,0.5
0,hoarding,0.348,123,0,pa_me_1968_07_10_05_f,0.5
0,hoarding,0.374,124,1,pa_me_1968_07_10_05_f,0.5
0,hoarding,0.298,125,0,pa_me_1968_07_10_05_f,0.5
0,hoarding,0.339,126,0,pa_me_1968_07_10_05_f,0.5
0,hoarding,0.335,127,0,pa_me_1968_07_10_05_f,0.5
0,hoarding,0.348,128,0,pa_me_1968_07_10_05_f,0.5
1,hoarding,0.337,129,0,pa_me_1968_07_10_05_f,0.5
1,hoarding,0.304,130,0,pa_me_1968_07_10_05_f,0.5
1,hoarding,0.345,131,0,pa_me_1968_07_10_05_f,0.5
0,hoarding,0.251,132,0,pa_me_1968_07_10_05_f,0.5
0,hoarding,0.368,133,1,pa_me_1968_07_10_05_f,0.5
0,hoarding,0.313,134,0,pa_me_1968_07_10_05_f,0.5
0,hoarding,0.621,135,0,pa_me_1968_07_10_05_f,0.5
0,hoarding,0.349,136,0,pa_me_1968_07_10_05_f,0.5
0,hoarding,0.345,137,1,pa_me_1968_07_10_05_f,0.5
0,hoarding,0.321,138,1,pa_me_1968_07_10_05_f,0.5
0,hoarding,0.412,139,0,pa_me_1968_07_10_05_f,0.5
0,hoarding,0.379,140,1,pa_me_1968_07_10_05_f,0.5
0,hoarding,0.354,141,1,pa_me_1968_07_10_05_f,0.5
0,hoarding,0.327,142,1,pa_me_1968_07_10_05_f,0.5
0,hoarding,0.399,143,0,pa_me_1968_07_10_05_f,0.5
0,hoarding,0.403,144,0,pa_me_1968_07_10_05_f,0.5
0,hoarding,0.445,145,0,pa_me_1968_07_10_05_f,0.5
0,hoarding,0.354,146,0,pa_me_1968_07_10_05_f,0.5
0,hoarding,0.383,147,0,pa_me_1968_07_10_05_f,0.5
1,hoarding,0.513,148,1,pa_me_1968_07_10_05_f,0.5
1,hoarding,0.304,149,1,pa_me_1968_07_10_05_f,0.5
1,hoarding,0.354,150,1,pa_me_1968_07_10_05_f,0.5
1,hoarding,0.4,151,1,pa_me_1968_07_10_05_f,0.5
1,hoarding,0.395,152,0,pa_me_1968_07_10_05_f,0.5
1,hoarding,0.279,153,1,pa_me_1968_07_10_05_f,0.5
1,hoarding,0.323,154,1,pa_me_1968_07_10_05_f,0.5
1,hoarding,0.317,155,0,pa_me_1968_07_10_05_f,0.5
1,hoarding,0.326,156,1,pa_me_1968_07_10_05_f,0.5
1,hoarding,0.283,157,1,pa_me_1968_07_10_05_f,0.5
1,hoarding,0.369,158,1,pa_me_1968_07_10_05_f,0.5
1,hoarding,0.362,159,1,pa_me_1968_07_10_05_f,0.5
1,hoarding,0.304,160,1,pa_me_1968_07_10_05_f,0.5
1,hoarding,0.971531972345032,1,1,lo_va_1955_11_25_06_f,0.5
1,hoarding,1.29,2,0,lo_va_1955_11_25_06_f,0.5
0,hoarding,1.839,3,1,lo_va_1955_11_25_06_f,0.5
1,hoarding,1.272,4,0,lo_va_1955_11_25_06_f,0.5
0,hoarding,0.819,5,1,lo_va_1955_11_25_06_f,0.5
0,hoarding,0.631,6,1,lo_va_1955_11_25_06_f,0.5
1,hoarding,1.061,7,1,lo_va_1955_11_25_06_f,0.5
1,hoarding,0.72,8,0,lo_va_1955_11_25_06_f,0.5
1,hoarding,0.609,9,1,lo_va_1955_11_25_06_f,0.5
0,hoarding,0.616,10,1,lo_va_1955_11_25_06_f,0.5
0,hoarding,0.63,11,1,lo_va_1955_11_25_06_f,0.5
1,hoarding,0.957,12,0,lo_va_1955_11_25_06_f,0.5
1,hoarding,1.307,13,1,lo_va_1955_11_25_06_f,0.5
0,hoarding,0.803,14,1,lo_va_1955_11_25_06_f,0.5
0,hoarding,1.212,15,1,lo_va_1955_11_25_06_f,0.5
0,hoarding,0.704,16,1,lo_va_1955_11_25_06_f,0.5
1,hoarding,1.194,17,1,lo_va_1955_11_25_06_f,0.5
0,hoarding,1.032,18,1,lo_va_1955_11_25_06_f,0.5
0,hoarding,0.653,19,1,lo_va_1955_11_25_06_f,0.5
1,hoarding,0.786,20,1,lo_va_1955_11_25_06_f,0.5
0,hoarding,1.056,21,0,lo_va_1955_11_25_06_f,0.5
0,hoarding,1.123,22,1,lo_va_1955_11_25_06_f,0.5
0,hoarding,1.733,23,1,lo_va_1955_11_25_06_f,0.5
1,hoarding,1.355,24,0,lo_va_1955_11_25_06_f,0.5
1,hoarding,0.626,25,1,lo_va_1955_11_25_06_f,0.5
0,hoarding,1.312,26,1,lo_va_1955_11_25_06_f,0.5
1,hoarding,1.002,27,0,lo_va_1955_11_25_06_f,0.5
1,hoarding,1.328,28,0,lo_va_1955_11_25_06_f,0.5
1,hoarding,2.024,29,1,lo_va_1955_11_25_06_f,0.5
0,hoarding,1.211,30,1,lo_va_1955_11_25_06_f,0.5
1,hoarding,0.945,31,0,lo_va_1955_11_25_06_f,0.5
0,hoarding,1.41,32,0,lo_va_1955_11_25_06_f,0.5
1,hoarding,1.366,33,0,lo_va_1955_11_25_06_f,0.5
1,hoarding,1.462,34,1,lo_va_1955_11_25_06_f,0.5
0,hoarding,1.023,35,1,lo_va_1955_11_25_06_f,0.5
0,hoarding,1.285,36,1,lo_va_1955_11_25_06_f,0.5
0,hoarding,0.879,37,0,lo_va_1955_11_25_06_f,0.5
1,hoarding,1.138,38,0,lo_va_1955_11_25_06_f,0.5
1,hoarding,1.906,39,0,lo_va_1955_11_25_06_f,0.5
0,hoarding,1.554,40,1,lo_va_1955_11_25_06_f,0.5
0,hoarding,1.472,41,1,lo_va_1955_11_25_06_f,0.5
1,hoarding,0.811,42,1,lo_va_1955_11_25_06_f,0.5
1,hoarding,0.61,43,1,lo_va_1955_11_25_06_f,0.5
0,hoarding,1.04,44,0,lo_va_1955_11_25_06_f,0.5
0,hoarding,1.228,45,0,lo_va_1955_11_25_06_f,0.5
0,hoarding,1.114,46,0,lo_va_1955_11_25_06_f,0.5
1,hoarding,0.834,47,1,lo_va_1955_11_25_06_f,0.5
0,hoarding,0.879,48,0,lo_va_1955_11_25_06_f,0.5
1,hoarding,1.259,49,1,lo_va_1955_11_25_06_f,0.5
0,hoarding,0.8,50,0,lo_va_1955_11_25_06_f,0.5
1,hoarding,0.989,51,1,lo_va_1955_11_25_06_f,0.5
1,hoarding,0.555,52,1,lo_va_1955_11_25_06_f,0.5
0,hoarding,0.779,53,0,lo_va_1955_11_25_06_f,0.5
0,hoarding,1.3,54,0,lo_va_1955_11_25_06_f,0.5
1,hoarding,1.091,55,1,lo_va_1955_11_25_06_f,0.5
1,hoarding,0.726,56,0,lo_va_1955_11_25_06_f,0.5
1,hoarding,1.127,57,1,lo_va_1955_11_25_06_f,0.5
0,hoarding,0.609,58,0,lo_va_1955_11_25_06_f,0.5
0,hoarding,1.646,59,1,lo_va_1955_11_25_06_f,0.5
0,hoarding,1.306,60,1,lo_va_1955_11_25_06_f,0.5
1,hoarding,1.317,61,1,lo_va_1955_11_25_06_f,0.5
1,hoarding,0.939,62,0,lo_va_1955_11_25_06_f,0.5
1,hoarding,1.093,63,1,lo_va_1955_11_25_06_f,0.5
1,hoarding,1.591,64,1,lo_va_1955_11_25_06_f,0.5
1,hoarding,0.757,65,0,lo_va_1955_11_25_06_f,0.5
1,hoarding,1.026,66,1,lo_va_1955_11_25_06_f,0.5
0,hoarding,1.082,67,0,lo_va_1955_11_25_06_f,0.5
0,hoarding,1.876,68,0,lo_va_1955_11_25_06_f,0.5
0,hoarding,0.868,69,0,lo_va_1955_11_25_06_f,0.5
0,hoarding,0.647,70,1,lo_va_1955_11_25_06_f,0.5
0,hoarding,0.757,71,0,lo_va_1955_11_25_06_f,0.5
0,hoarding,1.085,72,0,lo_va_1955_11_25_06_f,0.5
0,hoarding,1.438,73,1,lo_va_1955_11_25_06_f,0.5
1,hoarding,1.266,74,0,lo_va_1955_11_25_06_f,0.5
1,hoarding,1.693,75,1,lo_va_1955_11_25_06_f,0.5
0,hoarding,0.614,76,0,lo_va_1955_11_25_06_f,0.5
1,hoarding,1.731,77,0,lo_va_1955_11_25_06_f,0.5
1,hoarding,1.812,78,1,lo_va_1955_11_25_06_f,0.5
1,hoarding,0.76,79,0,lo_va_1955_11_25_06_f,0.5
1,hoarding,0.736,80,0,lo_va_1955_11_25_06_f,0.5
0,hoarding,1.753,81,1,lo_va_1955_11_25_06_f,0.5
0,hoarding,1.264,82,1,lo_va_1955_11_25_06_f,0.5
0,hoarding,1.958,83,0,lo_va_1955_11_25_06_f,0.5
1,hoarding,0.863,84,1,lo_va_1955_11_25_06_f,0.5
1,hoarding,0.965,85,1,lo_va_1955_11_25_06_f,0.5
0,hoarding,0.899,86,1,lo_va_1955_11_25_06_f,0.5
0,hoarding,0.854,87,1,lo_va_1955_11_25_06_f,0.5
0,hoarding,0.842,88,1,lo_va_1955_11_25_06_f,0.5
1,hoarding,0.719,89,0,lo_va_1955_11_25_06_f,0.5
1,hoarding,2.224,90,0,lo_va_1955_11_25_06_f,0.5
1,hoarding,2.348,91,0,lo_va_1955_11_25_06_f,0.5
0,hoarding,0.8,92,1,lo_va_1955_11_25_06_f,0.5
1,hoarding,1.151,93,0,lo_va_1955_11_25_06_f,0.5
1,hoarding,1.485,94,0,lo_va_1955_11_25_06_f,0.5
0,hoarding,1.417,95,1,lo_va_1955_11_25_06_f,0.5
1,hoarding,1.084,96,1,lo_va_1955_11_25_06_f,0.5
1,hoarding,0.775,97,0,lo_va_1955_11_25_06_f,0.5
0,hoarding,1.414,98,1,lo_va_1955_11_25_06_f,0.5
0,hoarding,0.835,99,1,lo_va_1955_11_25_06_f,0.5
0,hoarding,0.581,100,1,lo_va_1955_11_25_06_f,0.5
0,hoarding,0.672,101,1,lo_va_1955_11_25_06_f,0.5
0,hoarding,0.756,102,0,lo_va_1955_11_25_06_f,0.5
1,hoarding,0.926,103,0,lo_va_1955_11_25_06_f,0.5
0,hoarding,0.862,104,1,lo_va_1955_11_25_06_f,0.5
0,hoarding,0.642,105,0,lo_va_1955_11_25_06_f,0.5
1,hoarding,1.624,106,1,lo_va_1955_11_25_06_f,0.5
0,hoarding,0.771,107,0,lo_va_1955_11_25_06_f,0.5
0,hoarding,2.187,108,1,lo_va_1955_11_25_06_f,0.5
0,hoarding,1.647,109,1,lo_va_1955_11_25_06_f,0.5
0,hoarding,1.377,110,0,lo_va_1955_11_25_06_f,0.5
0,hoarding,1.336,111,1,lo_va_1955_11_25_06_f,0.5
0,hoarding,0.991,112,0,lo_va_1955_11_25_06_f,0.5
0,hoarding,0.503,113,1,lo_va_1955_11_25_06_f,0.5
0,hoarding,0.946,114,1,lo_va_1955_11_25_06_f,0.5
0,hoarding,0.915,115,0,lo_va_1955_11_25_06_f,0.5
0,hoarding,0.581,116,1,lo_va_1955_11_25_06_f,0.5
0,hoarding,1.075,117,1,lo_va_1955_11_25_06_f,0.5
0,hoarding,0.567,118,1,lo_va_1955_11_25_06_f,0.5
0,hoarding,0.736,119,0,lo_va_1955_11_25_06_f,0.5
0,hoarding,1.328,120,1,lo_va_1955_11_25_06_f,0.5
0,hoarding,0.753,121,0,lo_va_1955_11_25_06_f,0.5
0,hoarding,1.282,122,1,lo_va_1955_11_25_06_f,0.5
0,hoarding,0.698,123,0,lo_va_1955_11_25_06_f,0.5
0,hoarding,1.071,124,0,lo_va_1955_11_25_06_f,0.5
0,hoarding,0.474,125,0,lo_va_1955_11_25_06_f,0.5
0,hoarding,1.109,126,1,lo_va_1955_11_25_06_f,0.5
0,hoarding,0.775,127,0,lo_va_1955_11_25_06_f,0.5
0,hoarding,1.207,128,0,lo_va_1955_11_25_06_f,0.5
0,hoarding,0.468,129,0,lo_va_1955_11_25_06_f,0.5
0,hoarding,0.519,130,0,lo_va_1955_11_25_06_f,0.5
0,hoarding,0.624,131,0,lo_va_1955_11_25_06_f,0.5
0,hoarding,0.766,132,0,lo_va_1955_11_25_06_f,0.5
0,hoarding,0.454,133,0,lo_va_1955_11_25_06_f,0.5
0,hoarding,1.371,134,0,lo_va_1955_11_25_06_f,0.5
1,hoarding,0.945,135,1,lo_va_1955_11_25_06_f,0.5
1,hoarding,0.864,136,0,lo_va_1955_11_25_06_f,0.5
1,hoarding,2.221,137,0,lo_va_1955_11_25_06_f,0.5
0,hoarding,1.438,138,0,lo_va_1955_11_25_06_f,0.5
1,hoarding,0.914,139,0,lo_va_1955_11_25_06_f,0.5
0,hoarding,0.925,140,1,lo_va_1955_11_25_06_f,0.5
0,hoarding,0.806,141,0,lo_va_1955_11_25_06_f,0.5
1,hoarding,1.389,142,1,lo_va_1955_11_25_06_f,0.5
0,hoarding,1.131,143,0,lo_va_1955_11_25_06_f,0.5
1,hoarding,0.779,144,0,lo_va_1955_11_25_06_f,0.5
1,hoarding,2.306,145,1,lo_va_1955_11_25_06_f,0.5
0,hoarding,0.53,146,1,lo_va_1955_11_25_06_f,0.5
1,hoarding,0.683,147,1,lo_va_1955_11_25_06_f,0.5
0,hoarding,1.048,148,0,lo_va_1955_11_25_06_f,0.5
0,hoarding,1.563,149,1,lo_va_1955_11_25_06_f,0.5
1,hoarding,0.945,150,0,lo_va_1955_11_25_06_f,0.5
0,hoarding,1.209,151,1,lo_va_1955_11_25_06_f,0.5
1,hoarding,1.807,152,1,lo_va_1955_11_25_06_f,0.5
0,hoarding,1.226,153,0,lo_va_1955_11_25_06_f,0.5
1,hoarding,2.374,154,1,lo_va_1955_11_25_06_f,0.5
0,hoarding,1.356,155,0,lo_va_1955_11_25_06_f,0.5
1,hoarding,1.17,156,1,lo_va_1955_11_25_06_f,0.5
1,hoarding,1.685,157,0,lo_va_1955_11_25_06_f,0.5
1,hoarding,1.692,158,1,lo_va_1955_11_25_06_f,0.5
0,hoarding,0.916,159,0,lo_va_1955_11_25_06_f,0.5
0,hoarding,0.645,160,0,lo_va_1955_11_25_06_f,0.5
0,hoarding,0.853676656407993,1,0,gi_ba_1958_08_17_01_m,0.5
0,hoarding,1.345,2,0,gi_ba_1958_08_17_01_m,0.5
0,hoarding,2.454,3,0,gi_ba_1958_08_17_01_m,0.5
0,hoarding,0.894030391936789,4,1,gi_ba_1958_08_17_01_m,0.5
1,hoarding,1.566,5,0,gi_ba_1958_08_17_01_m,0.5
1,hoarding,1.358,6,0,gi_ba_1958_08_17_01_m,0.5
0,hoarding,2.246,7,1,gi_ba_1958_08_17_01_m,0.5
0,hoarding,0.892912496326651,8,1,gi_ba_1958_08_17_01_m,0.5
1,hoarding,2,9,0,gi_ba_1958_08_17_01_m,0.5
0,hoarding,1.389,10,1,gi_ba_1958_08_17_01_m,0.5
1,hoarding,1.128,11,0,gi_ba_1958_08_17_01_m,0.5
0,hoarding,1.64,12,1,gi_ba_1958_08_17_01_m,0.5
0,hoarding,0.618,13,1,gi_ba_1958_08_17_01_m,0.5
0,hoarding,0.448,14,0,gi_ba_1958_08_17_01_m,0.5
1,hoarding,1.481,15,1,gi_ba_1958_08_17_01_m,0.5
1,hoarding,1.115,16,0,gi_ba_1958_08_17_01_m,0.5
1,hoarding,1.442,17,0,gi_ba_1958_08_17_01_m,0.5
1,hoarding,1.053,18,1,gi_ba_1958_08_17_01_m,0.5
1,hoarding,1.245,19,0,gi_ba_1958_08_17_01_m,0.5
1,hoarding,1.197,20,0,gi_ba_1958_08_17_01_m,0.5
1,hoarding,1.733,21,0,gi_ba_1958_08_17_01_m,0.5
0,hoarding,1.699,22,1,gi_ba_1958_08_17_01_m,0.5
0,hoarding,1.039,23,1,gi_ba_1958_08_17_01_m,0.5
0,hoarding,0.638,24,1,gi_ba_1958_08_17_01_m,0.5
0,hoarding,0.564,25,0,gi_ba_1958_08_17_01_m,0.5
1,hoarding,1.022,26,0,gi_ba_1958_08_17_01_m,0.5
0,hoarding,0.747,27,1,gi_ba_1958_08_17_01_m,0.5
0,hoarding,0.754,28,1,gi_ba_1958_08_17_01_m,0.5
0,hoarding,0.572,29,1,gi_ba_1958_08_17_01_m,0.5
0,hoarding,1.011,30,1,gi_ba_1958_08_17_01_m,0.5
1,hoarding,0.767,31,0,gi_ba_1958_08_17_01_m,0.5
0,hoarding,1.02,32,0,gi_ba_1958_08_17_01_m,0.5
1,hoarding,0.516,33,1,gi_ba_1958_08_17_01_m,0.5
0,hoarding,1.774,34,0,gi_ba_1958_08_17_01_m,0.5
1,hoarding,1.649,35,1,gi_ba_1958_08_17_01_m,0.5
1,hoarding,0.606,36,1,gi_ba_1958_08_17_01_m,0.5
0,hoarding,1.474,37,1,gi_ba_1958_08_17_01_m,0.5
0,hoarding,0.762,38,1,gi_ba_1958_08_17_01_m,0.5
1,hoarding,1.153,39,0,gi_ba_1958_08_17_01_m,0.5
0,hoarding,0.974,40,1,gi_ba_1958_08_17_01_m,0.5
0,hoarding,0.776,41,1,gi_ba_1958_08_17_01_m,0.5
0,hoarding,1.069,42,0,gi_ba_1958_08_17_01_m,0.5
1,hoarding,0.787,43,1,gi_ba_1958_08_17_01_m,0.5
1,hoarding,0.824,44,0,gi_ba_1958_08_17_01_m,0.5
0,hoarding,0.845,45,1,gi_ba_1958_08_17_01_m,0.5
0,hoarding,1.674,46,1,gi_ba_1958_08_17_01_m,0.5
1,hoarding,1.291,47,0,gi_ba_1958_08_17_01_m,0.5
0,hoarding,0.797,48,0,gi_ba_1958_08_17_01_m,0.5
1,hoarding,0.663,49,0,gi_ba_1958_08_17_01_m,0.5
0,hoarding,1.837,50,1,gi_ba_1958_08_17_01_m,0.5
0,hoarding,1.539,51,1,gi_ba_1958_08_17_01_m,0.5
0,hoarding,0.967,52,0,gi_ba_1958_08_17_01_m,0.5
0,hoarding,1.184,53,1,gi_ba_1958_08_17_01_m,0.5
0,hoarding,0.956,54,0,gi_ba_1958_08_17_01_m,0.5
0,hoarding,0.909516090305676,55,0,gi_ba_1958_08_17_01_m,0.5
0,hoarding,0.625,56,0,gi_ba_1958_08_17_01_m,0.5
0,hoarding,0.473,57,0,gi_ba_1958_08_17_01_m,0.5
0,hoarding,0.569,58,0,gi_ba_1958_08_17_01_m,0.5
1,hoarding,0.602,59,1,gi_ba_1958_08_17_01_m,0.5
1,hoarding,0.826,60,1,gi_ba_1958_08_17_01_m,0.5
0,hoarding,1.053,61,0,gi_ba_1958_08_17_01_m,0.5
1,hoarding,0.894,62,1,gi_ba_1958_08_17_01_m,0.5
1,hoarding,0.632,63,1,gi_ba_1958_08_17_01_m,0.5
1,hoarding,0.489,64,1,gi_ba_1958_08_17_01_m,0.5
0,hoarding,0.65,65,0,gi_ba_1958_08_17_01_m,0.5
1,hoarding,1.13,66,1,gi_ba_1958_08_17_01_m,0.5
1,hoarding,1.862,67,1,gi_ba_1958_08_17_01_m,0.5
1,hoarding,1.202,68,1,gi_ba_1958_08_17_01_m,0.5
1,hoarding,0.923,69,1,gi_ba_1958_08_17_01_m,0.5
1,hoarding,1.627,70,0,gi_ba_1958_08_17_01_m,0.5
0,hoarding,0.831,71,0,gi_ba_1958_08_17_01_m,0.5
0,hoarding,0.896,72,0,gi_ba_1958_08_17_01_m,0.5
1,hoarding,1.237,73,0,gi_ba_1958_08_17_01_m,0.5
0,hoarding,0.686,74,0,gi_ba_1958_08_17_01_m,0.5
1,hoarding,0.6,75,1,gi_ba_1958_08_17_01_m,0.5
0,hoarding,0.957,76,0,gi_ba_1958_08_17_01_m,0.5
1,hoarding,0.649,77,1,gi_ba_1958_08_17_01_m,0.5
1,hoarding,0.688,78,1,gi_ba_1958_08_17_01_m,0.5
1,hoarding,0.751,79,0,gi_ba_1958_08_17_01_m,0.5
0,hoarding,0.912,80,0,gi_ba_1958_08_17_01_m,0.5
0,hoarding,0.858,81,1,gi_ba_1958_08_17_01_m,0.5
1,hoarding,0.787,82,1,gi_ba_1958_08_17_01_m,0.5
1,hoarding,0.669,83,1,gi_ba_1958_08_17_01_m,0.5
1,hoarding,0.934,84,0,gi_ba_1958_08_17_01_m,0.5
0,hoarding,0.498,85,1,gi_ba_1958_08_17_01_m,0.5
1,hoarding,1.109,86,0,gi_ba_1958_08_17_01_m,0.5
1,hoarding,0.846,87,0,gi_ba_1958_08_17_01_m,0.5
0,hoarding,0.548,88,1,gi_ba_1958_08_17_01_m,0.5
0,hoarding,0.683,89,0,gi_ba_1958_08_17_01_m,0.5
0,hoarding,0.633,90,1,gi_ba_1958_08_17_01_m,0.5
0,hoarding,0.895,91,1,gi_ba_1958_08_17_01_m,0.5
0,hoarding,1.334,92,1,gi_ba_1958_08_17_01_m,0.5
1,hoarding,0.804,93,1,gi_ba_1958_08_17_01_m,0.5
1,hoarding,0.935,94,1,gi_ba_1958_08_17_01_m,0.5
0,hoarding,1.135,95,1,gi_ba_1958_08_17_01_m,0.5
1,hoarding,1.112,96,0,gi_ba_1958_08_17_01_m,0.5
1,hoarding,0.988,97,0,gi_ba_1958_08_17_01_m,0.5
1,hoarding,0.826,98,0,gi_ba_1958_08_17_01_m,0.5
1,hoarding,1.923,99,1,gi_ba_1958_08_17_01_m,0.5
1,hoarding,0.915,100,1,gi_ba_1958_08_17_01_m,0.5
0,hoarding,1.955,101,1,gi_ba_1958_08_17_01_m,0.5
0,hoarding,1.103,102,1,gi_ba_1958_08_17_01_m,0.5
1,hoarding,0.854,103,1,gi_ba_1958_08_17_01_m,0.5
1,hoarding,0.774,104,0,gi_ba_1958_08_17_01_m,0.5
1,hoarding,1.374,105,0,gi_ba_1958_08_17_01_m,0.5
1,hoarding,1.312,106,0,gi_ba_1958_08_17_01_m,0.5
0,hoarding,0.636,107,1,gi_ba_1958_08_17_01_m,0.5
1,hoarding,0.666,108,0,gi_ba_1958_08_17_01_m,0.5
1,hoarding,0.853,109,0,gi_ba_1958_08_17_01_m,0.5
0,hoarding,1.419,110,1,gi_ba_1958_08_17_01_m,0.5
0,hoarding,0.451,111,0,gi_ba_1958_08_17_01_m,0.5
0,hoarding,0.89,112,1,gi_ba_1958_08_17_01_m,0.5
1,hoarding,0.74,113,0,gi_ba_1958_08_17_01_m,0.5
1,hoarding,1.165,114,0,gi_ba_1958_08_17_01_m,0.5
0,hoarding,1.006,115,0,gi_ba_1958_08_17_01_m,0.5
1,hoarding,0.91,116,0,gi_ba_1958_08_17_01_m,0.5
0,hoarding,2.142,117,0,gi_ba_1958_08_17_01_m,0.5
0,hoarding,1.087,118,0,gi_ba_1958_08_17_01_m,0.5
1,hoarding,1.182,119,0,gi_ba_1958_08_17_01_m,0.5
1,hoarding,0.753,120,0,gi_ba_1958_08_17_01_m,0.5
0,hoarding,1.531,121,0,gi_ba_1958_08_17_01_m,0.5
0,hoarding,0.968,122,1,gi_ba_1958_08_17_01_m,0.5
0,hoarding,0.791,123,0,gi_ba_1958_08_17_01_m,0.5
1,hoarding,1.823,124,1,gi_ba_1958_08_17_01_m,0.5
0,hoarding,1.488,125,1,gi_ba_1958_08_17_01_m,0.5
0,hoarding,1.551,126,1,gi_ba_1958_08_17_01_m,0.5
0,hoarding,1.4,127,0,gi_ba_1958_08_17_01_m,0.5
1,hoarding,1.126,128,1,gi_ba_1958_08_17_01_m,0.5
1,hoarding,1.549,129,1,gi_ba_1958_08_17_01_m,0.5
1,hoarding,0.906,130,1,gi_ba_1958_08_17_01_m,0.5
1,hoarding,1.591,131,1,gi_ba_1958_08_17_01_m,0.5
1,hoarding,1.496,132,1,gi_ba_1958_08_17_01_m,0.5
1,hoarding,0.897,133,0,gi_ba_1958_08_17_01_m,0.5
1,hoarding,0.991,134,0,gi_ba_1958_08_17_01_m,0.5
1,hoarding,1.778,135,1,gi_ba_1958_08_17_01_m,0.5
1,hoarding,1.582,136,0,gi_ba_1958_08_17_01_m,0.5
0,hoarding,0.949,137,0,gi_ba_1958_08_17_01_m,0.5
0,hoarding,1.814,138,0,gi_ba_1958_08_17_01_m,0.5
0,hoarding,0.879,139,1,gi_ba_1958_08_17_01_m,0.5
1,hoarding,2.063,140,1,gi_ba_1958_08_17_01_m,0.5
0,hoarding,1.699,141,0,gi_ba_1958_08_17_01_m,0.5
0,hoarding,1.255,142,0,gi_ba_1958_08_17_01_m,0.5
0,hoarding,1.847,143,0,gi_ba_1958_08_17_01_m,0.5
0,hoarding,1.431,144,1,gi_ba_1958_08_17_01_m,0.5
1,hoarding,1.479,145,1,gi_ba_1958_08_17_01_m,0.5
0,hoarding,1.353,146,0,gi_ba_1958_08_17_01_m,0.5
0,hoarding,1.396,147,0,gi_ba_1958_08_17_01_m,0.5
1,hoarding,1.116,148,0,gi_ba_1958_08_17_01_m,0.5
0,hoarding,0.875,149,0,gi_ba_1958_08_17_01_m,0.5
0,hoarding,0.962,150,0,gi_ba_1958_08_17_01_m,0.5
0,hoarding,1.437,151,0,gi_ba_1958_08_17_01_m,0.5
0,hoarding,0.966,152,0,gi_ba_1958_08_17_01_m,0.5
0,hoarding,1.632,153,1,gi_ba_1958_08_17_01_m,0.5
1,hoarding,1.404,154,1,gi_ba_1958_08_17_01_m,0.5
0,hoarding,1.225,155,0,gi_ba_1958_08_17_01_m,0.5
0,hoarding,1.435,156,1,gi_ba_1958_08_17_01_m,0.5
1,hoarding,1.724,157,1,gi_ba_1958_08_17_01_m,0.5
1,hoarding,1.355,158,0,gi_ba_1958_08_17_01_m,0.5
1,hoarding,1.882,159,1,gi_ba_1958_08_17_01_m,0.5
0,hoarding,1.628,160,0,gi_ba_1958_08_17_01_m,0.5
1,hoarding,0.911692905502569,1,0,al_ba_1948_06_19_00_f,0.5
0,hoarding,1.515,2,1,al_ba_1948_06_19_00_f,0.5
0,hoarding,0.563,3,1,al_ba_1948_06_19_00_f,0.5
0,hoarding,0.489,4,0,al_ba_1948_06_19_00_f,0.5
0,hoarding,1.457,5,0,al_ba_1948_06_19_00_f,0.5
1,hoarding,1.35,6,0,al_ba_1948_06_19_00_f,0.5
0,hoarding,1.045,7,1,al_ba_1948_06_19_00_f,0.5
0,hoarding,1.578,8,0,al_ba_1948_06_19_00_f,0.5
1,hoarding,1.309,9,1,al_ba_1948_06_19_00_f,0.5
1,hoarding,0.63,10,0,al_ba_1948_06_19_00_f,0.5
1,hoarding,0.806,11,0,al_ba_1948_06_19_00_f,0.5
1,hoarding,1.62,12,0,al_ba_1948_06_19_00_f,0.5
0,hoarding,1.12,13,0,al_ba_1948_06_19_00_f,0.5
1,hoarding,1.209,14,0,al_ba_1948_06_19_00_f,0.5
0,hoarding,0.945,15,1,al_ba_1948_06_19_00_f,0.5
1,hoarding,0.725,16,0,al_ba_1948_06_19_00_f,0.5
0,hoarding,0.584,17,0,al_ba_1948_06_19_00_f,0.5
0,hoarding,2.173,18,1,al_ba_1948_06_19_00_f,0.5
1,hoarding,0.678,19,0,al_ba_1948_06_19_00_f,0.5
0,hoarding,0.549,20,1,al_ba_1948_06_19_00_f,0.5
0,hoarding,1.054,21,1,al_ba_1948_06_19_00_f,0.5
0,hoarding,0.968,22,0,al_ba_1948_06_19_00_f,0.5
0,hoarding,1.558,23,0,al_ba_1948_06_19_00_f,0.5
0,hoarding,0.721,24,1,al_ba_1948_06_19_00_f,0.5
0,hoarding,0.45,25,1,al_ba_1948_06_19_00_f,0.5
0,hoarding,0.808,26,1,al_ba_1948_06_19_00_f,0.5
0,hoarding,1.03,27,0,al_ba_1948_06_19_00_f,0.5
0,hoarding,0.576,28,1,al_ba_1948_06_19_00_f,0.5
0,hoarding,0.551,29,1,al_ba_1948_06_19_00_f,0.5
0,hoarding,0.776,30,0,al_ba_1948_06_19_00_f,0.5
0,hoarding,0.732,31,1,al_ba_1948_06_19_00_f,0.5
0,hoarding,0.764,32,1,al_ba_1948_06_19_00_f,0.5
0,hoarding,0.519,33,1,al_ba_1948_06_19_00_f,0.5
0,hoarding,0.818,34,0,al_ba_1948_06_19_00_f,0.5
0,hoarding,0.619,35,1,al_ba_1948_06_19_00_f,0.5
0,hoarding,0.49,36,1,al_ba_1948_06_19_00_f,0.5
0,hoarding,0.379,37,0,al_ba_1948_06_19_00_f,0.5
1,hoarding,1.689,38,0,al_ba_1948_06_19_00_f,0.5
0,hoarding,0.577,39,1,al_ba_1948_06_19_00_f,0.5
0,hoarding,1.049,40,1,al_ba_1948_06_19_00_f,0.5
0,hoarding,0.65,41,1,al_ba_1948_06_19_00_f,0.5
0,hoarding,0.681,42,1,al_ba_1948_06_19_00_f,0.5
0,hoarding,0.437,43,0,al_ba_1948_06_19_00_f,0.5
0,hoarding,0.867,44,0,al_ba_1948_06_19_00_f,0.5
0,hoarding,1.02,45,0,al_ba_1948_06_19_00_f,0.5
0,hoarding,0.534,46,0,al_ba_1948_06_19_00_f,0.5
0,hoarding,0.715,47,0,al_ba_1948_06_19_00_f,0.5
0,hoarding,0.876,48,0,al_ba_1948_06_19_00_f,0.5
0,hoarding,0.601,49,0,al_ba_1948_06_19_00_f,0.5
1,hoarding,1.664,50,1,al_ba_1948_06_19_00_f,0.5
1,hoarding,0.866,51,1,al_ba_1948_06_19_00_f,0.5
1,hoarding,1.065,52,1,al_ba_1948_06_19_00_f,0.5
1,hoarding,0.528,53,0,al_ba_1948_06_19_00_f,0.5
0,hoarding,1.081,54,0,al_ba_1948_06_19_00_f,0.5
0,hoarding,1.051,55,0,al_ba_1948_06_19_00_f,0.5
0,hoarding,1.326,56,1,al_ba_1948_06_19_00_f,0.5
0,hoarding,0.619,57,0,al_ba_1948_06_19_00_f,0.5
0,hoarding,1.347,58,1,al_ba_1948_06_19_00_f,0.5
0,hoarding,1.006,59,0,al_ba_1948_06_19_00_f,0.5
0,hoarding,1.177,60,0,al_ba_1948_06_19_00_f,0.5
0,hoarding,1.444,61,1,al_ba_1948_06_19_00_f,0.5
0,hoarding,1.292,62,0,al_ba_1948_06_19_00_f,0.5
0,hoarding,1.122,63,0,al_ba_1948_06_19_00_f,0.5
0,hoarding,1.707,64,0,al_ba_1948_06_19_00_f,0.5
0,hoarding,2.206,65,0,al_ba_1948_06_19_00_f,0.5
0,hoarding,0.692,66,0,al_ba_1948_06_19_00_f,0.5
1,hoarding,1.683,67,1,al_ba_1948_06_19_00_f,0.5
1,hoarding,0.654,68,0,al_ba_1948_06_19_00_f,0.5
1,hoarding,1.263,69,1,al_ba_1948_06_19_00_f,0.5
1,hoarding,0.577,70,1,al_ba_1948_06_19_00_f,0.5
1,hoarding,0.526,71,0,al_ba_1948_06_19_00_f,0.5
0,hoarding,0.46,72,1,al_ba_1948_06_19_00_f,0.5
0,hoarding,1.987,73,1,al_ba_1948_06_19_00_f,0.5
0,hoarding,0.511,74,0,al_ba_1948_06_19_00_f,0.5
1,hoarding,1.93,75,1,al_ba_1948_06_19_00_f,0.5
1,hoarding,0.869,76,0,al_ba_1948_06_19_00_f,0.5
0,hoarding,0.93,77,0,al_ba_1948_06_19_00_f,0.5
0,hoarding,0.743,78,0,al_ba_1948_06_19_00_f,0.5
0,hoarding,1.318,79,1,al_ba_1948_06_19_00_f,0.5
0,hoarding,1.143,80,0,al_ba_1948_06_19_00_f,0.5
0,hoarding,0.872510901450997,81,1,al_ba_1948_06_19_00_f,0.5
0,hoarding,2.286,82,0,al_ba_1948_06_19_00_f,0.5
0,hoarding,0.802,83,0,al_ba_1948_06_19_00_f,0.5
1,hoarding,1.641,84,0,al_ba_1948_06_19_00_f,0.5
0,hoarding,0.385,85,1,al_ba_1948_06_19_00_f,0.5
0,hoarding,0.73,86,1,al_ba_1948_06_19_00_f,0.5
0,hoarding,1.171,87,0,al_ba_1948_06_19_00_f,0.5
0,hoarding,1.083,88,0,al_ba_1948_06_19_00_f,0.5
0,hoarding,1.507,89,0,al_ba_1948_06_19_00_f,0.5
0,hoarding,1.729,90,1,al_ba_1948_06_19_00_f,0.5
0,hoarding,1.023,91,1,al_ba_1948_06_19_00_f,0.5
0,hoarding,0.821,92,1,al_ba_1948_06_19_00_f,0.5
0,hoarding,0.502,93,1,al_ba_1948_06_19_00_f,0.5
0,hoarding,0.736,94,1,al_ba_1948_06_19_00_f,0.5
0,hoarding,1.08,95,0,al_ba_1948_06_19_00_f,0.5
0,hoarding,0.595,96,1,al_ba_1948_06_19_00_f,0.5
0,hoarding,0.494,97,1,al_ba_1948_06_19_00_f,0.5
0,hoarding,0.604,98,0,al_ba_1948_06_19_00_f,0.5
0,hoarding,0.438,99,1,al_ba_1948_06_19_00_f,0.5
0,hoarding,0.488,100,1,al_ba_1948_06_19_00_f,0.5
0,hoarding,0.677,101,1,al_ba_1948_06_19_00_f,0.5
0,hoarding,0.593,102,1,al_ba_1948_06_19_00_f,0.5
0,hoarding,0.777,103,1,al_ba_1948_06_19_00_f,0.5
0,hoarding,0.613,104,1,al_ba_1948_06_19_00_f,0.5
0,hoarding,0.718,105,0,al_ba_1948_06_19_00_f,0.5
0,hoarding,0.928,106,0,al_ba_1948_06_19_00_f,0.5
1,hoarding,0.899395722361673,107,0,al_ba_1948_06_19_00_f,0.5
1,hoarding,0.899116248468522,108,0,al_ba_1948_06_19_00_f,0.5
0,hoarding,0.864685632180024,109,1,al_ba_1948_06_19_00_f,0.5
0,hoarding,0.864406158268106,110,1,al_ba_1948_06_19_00_f,0.5
0,hoarding,0.864126684374955,111,1,al_ba_1948_06_19_00_f,0.5
0,hoarding,0.863847210463037,112,1,al_ba_1948_06_19_00_f,0.5
0,hoarding,0.863567736569885,113,1,al_ba_1948_06_19_00_f,0.5
0,hoarding,0.86328826266735,114,1,al_ba_1948_06_19_00_f,0.5
0,hoarding,0.863008788755433,115,1,al_ba_1948_06_19_00_f,0.5
0,hoarding,0.862729314862281,116,1,al_ba_1948_06_19_00_f,0.5
1,hoarding,0.896600983336326,117,0,al_ba_1948_06_19_00_f,0.5
0,hoarding,0.862170367057212,118,1,al_ba_1948_06_19_00_f,0.5
1,hoarding,0.89604203554064,119,0,al_ba_1948_06_19_00_f,0.5
0,hoarding,0.861611419252142,120,1,al_ba_1948_06_19_00_f,0.5
1,hoarding,0.865744220346795,121,1,al_ba_1948_06_19_00_f,0.5
0,hoarding,0.890791338835848,122,0,al_ba_1948_06_19_00_f,0.5
0,hoarding,0.890511864933313,123,0,al_ba_1948_06_19_00_f,0.5
1,hoarding,0.864905798639191,124,1,al_ba_1948_06_19_00_f,0.5
0,hoarding,0.88995291711886,125,0,al_ba_1948_06_19_00_f,0.5
0,hoarding,0.889673443216325,126,0,al_ba_1948_06_19_00_f,0.5
1,hoarding,0.864067376931586,127,1,al_ba_1948_06_19_00_f,0.5
0,hoarding,0.889114495411256,128,0,al_ba_1948_06_19_00_f,0.5
1,hoarding,0.863508429126517,129,1,al_ba_1948_06_19_00_f,0.5
1,hoarding,0.863228955223982,130,1,al_ba_1948_06_19_00_f,0.5
0,hoarding,0.888276073713035,131,0,al_ba_1948_06_19_00_f,0.5
1,hoarding,0.862670007418913,132,1,al_ba_1948_06_19_00_f,0.5
0,hoarding,0.887717125907965,133,0,al_ba_1948_06_19_00_f,0.5
0,hoarding,0.887437651996047,134,0,al_ba_1948_06_19_00_f,0.5
0,hoarding,0.703,135,1,al_ba_1948_06_19_00_f,0.5
0,hoarding,0.369,136,0,al_ba_1948_06_19_00_f,0.5
0,hoarding,0.889,137,0,al_ba_1948_06_19_00_f,0.5
0,hoarding,0.767,138,0,al_ba_1948_06_19_00_f,0.5
0,hoarding,1.427,139,0,al_ba_1948_06_19_00_f,0.5
0,hoarding,0.524,140,1,al_ba_1948_06_19_00_f,0.5
0,hoarding,0.776,141,0,al_ba_1948_06_19_00_f,0.5
1,hoarding,0.859875268393565,142,1,al_ba_1948_06_19_00_f,0.5
0,hoarding,0.995,143,0,al_ba_1948_06_19_00_f,0.5
0,hoarding,0.95,144,0,al_ba_1948_06_19_00_f,0.5
0,hoarding,0.8,145,0,al_ba_1948_06_19_00_f,0.5
0,hoarding,0.906,146,0,al_ba_1948_06_19_00_f,0.5
0,hoarding,1.207,147,0,al_ba_1948_06_19_00_f,0.5
1,hoarding,1.039,148,0,al_ba_1948_06_19_00_f,0.5
1,hoarding,0.826,149,0,al_ba_1948_06_19_00_f,0.5
1,hoarding,0.947,150,0,al_ba_1948_06_19_00_f,0.5
1,hoarding,0.969,151,1,al_ba_1948_06_19_00_f,0.5
1,hoarding,0.695,152,1,al_ba_1948_06_19_00_f,0.5
1,hoarding,0.464,153,0,al_ba_1948_06_19_00_f,0.5
1,hoarding,1.02,154,1,al_ba_1948_06_19_00_f,0.5
1,hoarding,0.787,155,1,al_ba_1948_06_19_00_f,0.5
1,hoarding,1.192,156,0,al_ba_1948_06_19_00_f,0.5
1,hoarding,1.05,157,1,al_ba_1948_06_19_00_f,0.5
1,hoarding,0.837,158,1,al_ba_1948_06_19_00_f,0.5
1,hoarding,1.268,159,1,al_ba_1948_06_19_00_f,0.5
1,hoarding,0.794,160,1,al_ba_1948_06_19_00_f,0.5
