response,stim,rt,trial,feedback,subj_code,q_init
0,neutral,0.955439358903522,1,1,fa_fa_1974_05_14_03_f,0.5
0,neutral,1.789,2,1,fa_fa_1974_05_14_03_f,0.5
0,neutral,0.908,3,0,fa_fa_1974_05_14_03_f,0.5
1,neutral,1.06695880972953,4,0,fa_fa_1974_05_14_03_f,0.5
1,neutral,1.406,5,0,fa_fa_1974_05_14_03_f,0.5
1,neutral,1.108,6,1,fa_fa_1974_05_14_03_f,0.5
0,neutral,0.356,7,1,fa_fa_1974_05_14_03_f,0.5
0,neutral,0.639,8,0,fa_fa_1974_05_14_03_f,0.5
1,neutral,0.598,9,0,fa_fa_1974_05_14_03_f,0.5
1,neutral,0.414,10,0,fa_fa_1974_05_14_03_f,0.5
1,neutral,0.903,11,0,fa_fa_1974_05_14_03_f,0.5
0,neutral,0.497,12,1,fa_fa_1974_05_14_03_f,0.5
0,neutral,0.358,13,1,fa_fa_1974_05_14_03_f,0.5
0,neutral,0.576,14,1,fa_fa_1974_05_14_03_f,0.5
1,neutral,0.647,15,1,fa_fa_1974_05_14_03_f,0.5
1,neutral,0.753,16,1,fa_fa_1974_05_14_03_f,0.5
0,neutral,0.702,17,1,fa_fa_1974_05_14_03_f,0.5
0,neutral,0.634,18,1,fa_fa_1974_05_14_03_f,0.5
0,neutral,0.536,19,1,fa_fa_1974_05_14_03_f,0.5
1,neutral,0.546,20,0,fa_fa_1974_05_14_03_f,0.5
0,neutral,0.923,21,1,fa_fa_1974_05_14_03_f,0.5
0,neutral,0.645,22,1,fa_fa_1974_05_14_03_f,0.5
0,neutral,0.515,23,0,fa_fa_1974_05_14_03_f,0.5
1,neutral,1.418,24,0,fa_fa_1974_05_14_03_f,0.5
0,neutral,0.387,25,1,fa_fa_1974_05_14_03_f,0.5
0,neutral,0.369,26,1,fa_fa_1974_05_14_03_f,0.5
0,neutral,0.807,27,1,fa_fa_1974_05_14_03_f,0.5
0,neutral,1.354,28,0,fa_fa_1974_05_14_03_f,0.5
1,neutral,1.025,29,0,fa_fa_1974_05_14_03_f,0.5
1,neutral,1.068,30,0,fa_fa_1974_05_14_03_f,0.5
0,neutral,0.71,31,0,fa_fa_1974_05_14_03_f,0.5
1,neutral,0.933,32,0,fa_fa_1974_05_14_03_f,0.5
0,neutral,1.291,33,1,fa_fa_1974_05_14_03_f,0.5
1,neutral,1.314,34,1,fa_fa_1974_05_14_03_f,0.5
1,neutral,1.01,35,0,fa_fa_1974_05_14_03_f,0.5
1,neutral,0.92,36,1,fa_fa_1974_05_14_03_f,0.5
1,neutral,1.299,37,0,fa_fa_1974_05_14_03_f,0.5
0,neutral,1.805,38,0,fa_fa_1974_05_14_03_f,0.5
1,neutral,0.499,39,0,fa_fa_1974_05_14_03_f,0.5
0,neutral,0.51,40,1,fa_fa_1974_05_14_03_f,0.5
1,neutral,0.623,41,0,fa_fa_1974_05_14_03_f,0.5
0,neutral,0.758,42,1,fa_fa_1974_05_14_03_f,0.5
0,neutral,0.652,43,0,fa_fa_1974_05_14_03_f,0.5
0,neutral,0.956,44,0,fa_fa_1974_05_14_03_f,0.5
1,neutral,0.465,45,1,fa_fa_1974_05_14_03_f,0.5
1,neutral,0.726,46,0,fa_fa_1974_05_14_03_f,0.5
1,neutral,0.539,47,1,fa_fa_1974_05_14_03_f,0.5
0,neutral,0.258,48,0,fa_fa_1974_05_14_03_f,0.5
1,neutral,0.439,49,1,fa_fa_1974_05_14_03_f,0.5
1,neutral,0.464,50,1,fa_fa_1974_05_14_03_f,0.5
1,neutral,0.487,51,1,fa_fa_1974_05_14_03_f,0.5
1,neutral,0.754,52,1,fa_fa_1974_05_14_03_f,0.5
1,neutral,0.587,53,1,fa_fa_1974_05_14_03_f,0.5
1,neutral,0.522,54,1,fa_fa_1974_05_14_03_f,0.5
0,neutral,1.005,55,0,fa_fa_1974_05_14_03_f,0.5
1,neutral,0.627,56,1,fa_fa_1974_05_14_03_f,0.5
1,neutral,0.429,57,1,fa_fa_1974_05_14_03_f,0.5
1,neutral,0.263,58,1,fa_fa_1974_05_14_03_f,0.5
0,neutral,0.824,59,0,fa_fa_1974_05_14_03_f,0.5
1,neutral,0.516,60,0,fa_fa_1974_05_14_03_f,0.5
1,neutral,0.6,61,1,fa_fa_1974_05_14_03_f,0.5
0,neutral,0.871,62,0,fa_fa_1974_05_14_03_f,0.5
0,neutral,1.501,63,0,fa_fa_1974_05_14_03_f,0.5
1,neutral,0.923,64,0,fa_fa_1974_05_14_03_f,0.5
1,neutral,0.479,65,0,fa_fa_1974_05_14_03_f,0.5
1,neutral,0.788,66,1,fa_fa_1974_05_14_03_f,0.5
1,neutral,0.853,67,1,fa_fa_1974_05_14_03_f,0.5
1,neutral,0.633,68,0,fa_fa_1974_05_14_03_f,0.5
1,neutral,0.454,69,0,fa_fa_1974_05_14_03_f,0.5
0,neutral,0.583,70,0,fa_fa_1974_05_14_03_f,0.5
1,neutral,0.335,71,0,fa_fa_1974_05_14_03_f,0.5
0,neutral,0.874,72,0,fa_fa_1974_05_14_03_f,0.5
1,neutral,0.307,73,1,fa_fa_1974_05_14_03_f,0.5
1,neutral,0.592,74,1,fa_fa_1974_05_14_03_f,0.5
1,neutral,0.67,75,1,fa_fa_1974_05_14_03_f,0.5
1,neutral,0.437,76,0,fa_fa_1974_05_14_03_f,0.5
0,neutral,1.065,77,0,fa_fa_1974_05_14_03_f,0.5
0,neutral,0.495,78,0,fa_fa_1974_05_14_03_f,0.5
0,neutral,0.57,79,1,fa_fa_1974_05_14_03_f,0.5
0,neutral,0.463,80,1,fa_fa_1974_05_14_03_f,0.5
0,neutral,0.397,81,0,fa_fa_1974_05_14_03_f,0.5
1,neutral,0.683,82,0,fa_fa_1974_05_14_03_f,0.5
0,neutral,0.503,83,0,fa_fa_1974_05_14_03_f,0.5
0,neutral,0.536,84,0,fa_fa_1974_05_14_03_f,0.5
0,neutral,0.615,85,0,fa_fa_1974_05_14_03_f,0.5
1,neutral,0.812,86,1,fa_fa_1974_05_14_03_f,0.5
0,neutral,1.027,87,0,fa_fa_1974_05_14_03_f,0.5
1,neutral,0.603,88,0,fa_fa_1974_05_14_03_f,0.5
0,neutral,0.795,89,1,fa_fa_1974_05_14_03_f,0.5
1,neutral,0.23,90,0,fa_fa_1974_05_14_03_f,0.5
1,neutral,0.65,91,0,fa_fa_1974_05_14_03_f,0.5
1,neutral,0.468,92,1,fa_fa_1974_05_14_03_f,0.5
1,neutral,0.821,93,0,fa_fa_1974_05_14_03_f,0.5
1,neutral,0.695,94,0,fa_fa_1974_05_14_03_f,0.5
0,neutral,0.357,95,1,fa_fa_1974_05_14_03_f,0.5
0,neutral,0.5,96,1,fa_fa_1974_05_14_03_f,0.5
0,neutral,0.524,97,1,fa_fa_1974_05_14_03_f,0.5
0,neutral,0.773,98,1,fa_fa_1974_05_14_03_f,0.5
0,neutral,1.161,99,1,fa_fa_1974_05_14_03_f,0.5
0,neutral,0.69,100,1,fa_fa_1974_05_14_03_f,0.5
0,neutral,0.467,101,1,fa_fa_1974_05_14_03_f,0.5
0,neutral,0.58,102,1,fa_fa_1974_05_14_03_f,0.5
0,neutral,0.295,103,1,fa_fa_1974_05_14_03_f,0.5
0,neutral,0.597,104,1,fa_fa_1974_05_14_03_f,0.5
0,neutral,0.459,105,1,fa_fa_1974_05_14_03_f,0.5
0,neutral,0.723,106,1,fa_fa_1974_05_14_03_f,0.5
0,neutral,0.515,107,0,fa_fa_1974_05_14_03_f,0.5
1,neutral,1.355,108,1,fa_fa_1974_05_14_03_f,0.5
1,neutral,0.672,109,0,fa_fa_1974_05_14_03_f,0.5
1,neutral,0.456,110,1,fa_fa_1974_05_14_03_f,0.5
1,neutral,0.384,111,1,fa_fa_1974_05_14_03_f,0.5
1,neutral,0.267,112,0,fa_fa_1974_05_14_03_f,0.5
0,neutral,0.308,113,1,fa_fa_1974_05_14_03_f,0.5
0,neutral,0.514,114,1,fa_fa_1974_05_14_03_f,0.5
0,neutral,0.777,115,1,fa_fa_1974_05_14_03_f,0.5
0,neutral,0.46,116,1,fa_fa_1974_05_14_03_f,0.5
0,neutral,0.345,117,0,fa_fa_1974_05_14_03_f,0.5
1,neutral,0.448,118,0,fa_fa_1974_05_14_03_f,0.5
0,neutral,0.262,119,1,fa_fa_1974_05_14_03_f,0.5
0,neutral,0.351,120,1,fa_fa_1974_05_14_03_f,0.5
0,neutral,0.728,121,0,fa_fa_1974_05_14_03_f,0.5
1,neutral,0.809,122,1,fa_fa_1974_05_14_03_f,0.5
1,neutral,0.486,123,1,fa_fa_1974_05_14_03_f,0.5
1,neutral,0.279,124,1,fa_fa_1974_05_14_03_f,0.5
0,neutral,0.641,125,1,fa_fa_1974_05_14_03_f,0.5
0,neutral,0.484,126,0,fa_fa_1974_05_14_03_f,0.5
1,neutral,0.323,127,0,fa_fa_1974_05_14_03_f,0.5
0,neutral,0.623,128,0,fa_fa_1974_05_14_03_f,0.5
1,neutral,0.44,129,1,fa_fa_1974_05_14_03_f,0.5
1,neutral,0.768,130,1,fa_fa_1974_05_14_03_f,0.5
1,neutral,0.525,131,1,fa_fa_1974_05_14_03_f,0.5
1,neutral,0.615,132,0,fa_fa_1974_05_14_03_f,0.5
1,neutral,0.377,133,1,fa_fa_1974_05_14_03_f,0.5
0,neutral,0.252,134,0,fa_fa_1974_05_14_03_f,0.5
1,neutral,0.449,135,0,fa_fa_1974_05_14_03_f,0.5
0,neutral,0.952,136,0,fa_fa_1974_05_14_03_f,0.5
1,neutral,0.697,137,1,fa_fa_1974_05_14_03_f,0.5
1,neutral,0.883,138,0,fa_fa_1974_05_14_03_f,0.5
0,neutral,0.357,139,0,fa_fa_1974_05_14_03_f,0.5
1,neutral,0.507,140,1,fa_fa_1974_05_14_03_f,0.5
1,neutral,0.895,141,0,fa_fa_1974_05_14_03_f,0.5
1,neutral,0.622,142,1,fa_fa_1974_05_14_03_f,0.5
1,neutral,0.319,143,1,fa_fa_1974_05_14_03_f,0.5
0,neutral,1.407,144,0,fa_fa_1974_05_14_03_f,0.5
1,neutral,0.646,145,1,fa_fa_1974_05_14_03_f,0.5
1,neutral,0.386,146,1,fa_fa_1974_05_14_03_f,0.5
1,neutral,0.323,147,1,fa_fa_1974_05_14_03_f,0.5
1,neutral,0.399,148,1,fa_fa_1974_05_14_03_f,0.5
1,neutral,0.592,149,1,fa_fa_1974_05_14_03_f,0.5
1,neutral,0.329,150,1,fa_fa_1974_05_14_03_f,0.5
1,neutral,0.298,151,1,fa_fa_1974_05_14_03_f,0.5
1,neutral,0.401,152,1,fa_fa_1974_05_14_03_f,0.5
1,neutral,0.289,153,0,fa_fa_1974_05_14_03_f,0.5
1,neutral,0.552,154,0,fa_fa_1974_05_14_03_f,0.5
1,neutral,1.467,155,0,fa_fa_1974_05_14_03_f,0.5
0,neutral,1.218,156,1,fa_fa_1974_05_14_03_f,0.5
1,neutral,0.631,157,1,fa_fa_1974_05_14_03_f,0.5
1,neutral,1.001,158,0,fa_fa_1974_05_14_03_f,0.5
0,neutral,0.686,159,1,fa_fa_1974_05_14_03_f,0.5
0,neutral,0.598,160,0,fa_fa_1974_05_14_03_f,0.5
0,neutral,0.94398491506543,1,1,gi_ba_1958_08_17_01_m,0.5
0,neutral,0.873,2,1,gi_ba_1958_08_17_01_m,0.5
0,neutral,0.655,3,1,gi_ba_1958_08_17_01_m,0.5
0,neutral,0.78,4,1,gi_ba_1958_08_17_01_m,0.5
1,neutral,0.749,5,0,gi_ba_1958_08_17_01_m,0.5
1,neutral,1.763,6,0,gi_ba_1958_08_17_01_m,0.5
1,neutral,0.951,7,1,gi_ba_1958_08_17_01_m,0.5
1,neutral,0.577,8,1,gi_ba_1958_08_17_01_m,0.5
1,neutral,0.858,9,0,gi_ba_1958_08_17_01_m,0.5
0,neutral,1.435,10,1,gi_ba_1958_08_17_01_m,0.5
1,neutral,1.435,11,1,gi_ba_1958_08_17_01_m,0.5
1,neutral,0.92,12,1,gi_ba_1958_08_17_01_m,0.5
1,neutral,1.295,13,0,gi_ba_1958_08_17_01_m,0.5
1,neutral,0.827,14,1,gi_ba_1958_08_17_01_m,0.5
1,neutral,0.981,15,0,gi_ba_1958_08_17_01_m,0.5
0,neutral,1.052,16,1,gi_ba_1958_08_17_01_m,0.5
0,neutral,0.674,17,1,gi_ba_1958_08_17_01_m,0.5
1,neutral,1.346,18,0,gi_ba_1958_08_17_01_m,0.5
0,neutral,1.308,19,1,gi_ba_1958_08_17_01_m,0.5
1,neutral,1.072,20,0,gi_ba_1958_08_17_01_m,0.5
0,neutral,1.765,21,0,gi_ba_1958_08_17_01_m,0.5
0,neutral,0.729,22,0,gi_ba_1958_08_17_01_m,0.5
1,neutral,0.698,23,0,gi_ba_1958_08_17_01_m,0.5
0,neutral,0.763,24,1,gi_ba_1958_08_17_01_m,0.5
0,neutral,0.83,25,1,gi_ba_1958_08_17_01_m,0.5
1,neutral,1.542,26,0,gi_ba_1958_08_17_01_m,0.5
1,neutral,1.228,27,1,gi_ba_1958_08_17_01_m,0.5
1,neutral,0.962,28,0,gi_ba_1958_08_17_01_m,0.5
0,neutral,2.032,29,1,gi_ba_1958_08_17_01_m,0.5
1,neutral,1.591,30,0,gi_ba_1958_08_17_01_m,0.5
1,neutral,0.833,31,0,gi_ba_1958_08_17_01_m,0.5
0,neutral,0.849,32,0,gi_ba_1958_08_17_01_m,0.5
1,neutral,1.5,33,0,gi_ba_1958_08_17_01_m,0.5
0,neutral,1.006,34,0,gi_ba_1958_08_17_01_m,0.5
1,neutral,0.701,35,0,gi_ba_1958_08_17_01_m,0.5
1,neutral,1.261,36,1,gi_ba_1958_08_17_01_m,0.5
0,neutral,1.489,37,0,gi_ba_1958_08_17_01_m,0.5
0,neutral,1.029,38,1,gi_ba_1958_08_17_01_m,0.5
0,neutral,1.886,39,1,gi_ba_1958_08_17_01_m,0.5
0,neutral,1.348,40,1,gi_ba_1958_08_17_01_m,0.5
1,neutral,1.283,41,1,gi_ba_1958_08_17_01_m,0.5
0,neutral,2.188,42,1,gi_ba_1958_08_17_01_m,0.5
0,neutral,1.761,43,0,gi_ba_1958_08_17_01_m,0.5
0,neutral,1.543,44,1,gi_ba_1958_08_17_01_m,0.5
0,neutral,0.764,45,1,gi_ba_1958_08_17_01_m,0.5
0,neutral,1.387,46,1,gi_ba_1958_08_17_01_m,0.5
0,neutral,1.365,47,0,gi_ba_1958_08_17_01_m,0.5
1,neutral,1.457,48,0,gi_ba_1958_08_17_01_m,0.5
0,neutral,0.997,49,0,gi_ba_1958_08_17_01_m,0.5
1,neutral,1.128,50,1,gi_ba_1958_08_17_01_m,0.5
1,neutral,1.011,51,1,gi_ba_1958_08_17_01_m,0.5
0,neutral,1.209,52,1,gi_ba_1958_08_17_01_m,0.5
0,neutral,1.331,53,1,gi_ba_1958_08_17_01_m,0.5
0,neutral,2.011,54,0,gi_ba_1958_08_17_01_m,0.5
1,neutral,1.111,55,1,gi_ba_1958_08_17_01_m,0.5
1,neutral,0.838,56,1,gi_ba_1958_08_17_01_m,0.5
0,neutral,1.156,57,0,gi_ba_1958_08_17_01_m,0.5
1,neutral,1.773,58,1,gi_ba_1958_08_17_01_m,0.5
1,neutral,0.846,59,1,gi_ba_1958_08_17_01_m,0.5
1,neutral,0.98,60,1,gi_ba_1958_08_17_01_m,0.5
1,neutral,1.439,61,0,gi_ba_1958_08_17_01_m,0.5
0,neutral,1.305,62,1,gi_ba_1958_08_17_01_m,0.5
1,neutral,1.061,63,0,gi_ba_1958_08_17_01_m,0.5
1,neutral,0.842,64,1,gi_ba_1958_08_17_01_m,0.5
0,neutral,0.966,65,0,gi_ba_1958_08_17_01_m,0.5
1,neutral,1.399,66,1,gi_ba_1958_08_17_01_m,0.5
1,neutral,1.19,67,1,gi_ba_1958_08_17_01_m,0.5
0,neutral,1.807,68,0,gi_ba_1958_08_17_01_m,0.5
0,neutral,1.165,69,1,gi_ba_1958_08_17_01_m,0.5
0,neutral,2.34,70,0,gi_ba_1958_08_17_01_m,0.5
1,neutral,1.719,71,1,gi_ba_1958_08_17_01_m,0.5
1,neutral,0.979,72,1,gi_ba_1958_08_17_01_m,0.5
1,neutral,1.148,73,1,gi_ba_1958_08_17_01_m,0.5
0,neutral,1.729,74,0,gi_ba_1958_08_17_01_m,0.5
1,neutral,2.073,75,1,gi_ba_1958_08_17_01_m,0.5
1,neutral,0.78,76,1,gi_ba_1958_08_17_01_m,0.5
1,neutral,1.34,77,1,gi_ba_1958_08_17_01_m,0.5
1,neutral,1.631,78,1,gi_ba_1958_08_17_01_m,0.5
0,neutral,1.286,79,0,gi_ba_1958_08_17_01_m,0.5
0,neutral,2.144,80,1,gi_ba_1958_08_17_01_m,0.5
0,neutral,1.003,81,0,gi_ba_1958_08_17_01_m,0.5
1,neutral,1.894,82,0,gi_ba_1958_08_17_01_m,0.5
1,neutral,1.668,83,0,gi_ba_1958_08_17_01_m,0.5
1,neutral,1.171,84,0,gi_ba_1958_08_17_01_m,0.5
0,neutral,0.936,85,0,gi_ba_1958_08_17_01_m,0.5
0,neutral,0.98,86,1,gi_ba_1958_08_17_01_m,0.5
0,neutral,1.677,87,1,gi_ba_1958_08_17_01_m,0.5
0,neutral,1.087,88,0,gi_ba_1958_08_17_01_m,0.5
1,neutral,2.375,89,1,gi_ba_1958_08_17_01_m,0.5
1,neutral,1.873,90,0,gi_ba_1958_08_17_01_m,0.5
1,neutral,1.337,91,0,gi_ba_1958_08_17_01_m,0.5
0,neutral,2.129,92,1,gi_ba_1958_08_17_01_m,0.5
0,neutral,1.959,93,1,gi_ba_1958_08_17_01_m,0.5
1,neutral,1.962,94,0,gi_ba_1958_08_17_01_m,0.5
1,neutral,1.291,95,1,gi_ba_1958_08_17_01_m,0.5
1,neutral,2.024,96,0,gi_ba_1958_08_17_01_m,0.5
1,neutral,1.875,97,0,gi_ba_1958_08_17_01_m,0.5
1,neutral,0.827,98,0,gi_ba_1958_08_17_01_m,0.5
0,neutral,2.012,99,1,gi_ba_1958_08_17_01_m,0.5
0,neutral,1.216,100,0,gi_ba_1958_08_17_01_m,0.5
0,neutral,0.985,101,0,gi_ba_1958_08_17_01_m,0.5
1,neutral,1.138,102,0,gi_ba_1958_08_17_01_m,0.5
1,neutral,0.773,103,1,gi_ba_1958_08_17_01_m,0.5
0,neutral,2.234,104,0,gi_ba_1958_08_17_01_m,0.5
1,neutral,1.512,105,1,gi_ba_1958_08_17_01_m,0.5
0,neutral,1.025,106,0,gi_ba_1958_08_17_01_m,0.5
0,neutral,1.829,107,1,gi_ba_1958_08_17_01_m,0.5
0,neutral,1.358,108,1,gi_ba_1958_08_17_01_m,0.5
0,neutral,0.985,109,1,gi_ba_1958_08_17_01_m,0.5
0,neutral,1.094,110,1,gi_ba_1958_08_17_01_m,0.5
0,neutral,1.317,111,1,gi_ba_1958_08_17_01_m,0.5
1,neutral,1.318,112,0,gi_ba_1958_08_17_01_m,0.5
0,neutral,0.933965476075691,113,1,gi_ba_1958_08_17_01_m,0.5
0,neutral,0.712,114,0,gi_ba_1958_08_17_01_m,0.5
1,neutral,1.45,115,0,gi_ba_1958_08_17_01_m,0.5
0,neutral,1.076,116,1,gi_ba_1958_08_17_01_m,0.5
0,neutral,1.932,117,1,gi_ba_1958_08_17_01_m,0.5
0,neutral,1.349,118,1,gi_ba_1958_08_17_01_m,0.5
0,neutral,1.481,119,1,gi_ba_1958_08_17_01_m,0.5
1,neutral,1.429,120,0,gi_ba_1958_08_17_01_m,0.5
0,neutral,1.151,121,0,gi_ba_1958_08_17_01_m,0.5
0,neutral,0.774,122,0,gi_ba_1958_08_17_01_m,0.5
1,neutral,1.488,123,0,gi_ba_1958_08_17_01_m,0.5
1,neutral,2.248,124,1,gi_ba_1958_08_17_01_m,0.5
1,neutral,1.775,125,1,gi_ba_1958_08_17_01_m,0.5
1,neutral,1.075,126,0,gi_ba_1958_08_17_01_m,0.5
0,neutral,1.258,127,0,gi_ba_1958_08_17_01_m,0.5
0,neutral,1.16701591324943,128,0,gi_ba_1958_08_17_01_m,0.5
1,neutral,0.587,129,1,gi_ba_1958_08_17_01_m,0.5
1,neutral,0.645,130,1,gi_ba_1958_08_17_01_m,0.5
1,neutral,0.859,131,1,gi_ba_1958_08_17_01_m,0.5
1,neutral,0.772,132,1,gi_ba_1958_08_17_01_m,0.5
1,neutral,0.907,133,0,gi_ba_1958_08_17_01_m,0.5
0,neutral,2.268,134,1,gi_ba_1958_08_17_01_m,0.5
0,neutral,0.86,135,0,gi_ba_1958_08_17_01_m,0.5
1,neutral,1.564,136,1,gi_ba_1958_08_17_01_m,0.5
1,neutral,1.646,137,1,gi_ba_1958_08_17_01_m,0.5
1,neutral,0.763,138,1,gi_ba_1958_08_17_01_m,0.5
1,neutral,0.76,139,1,gi_ba_1958_08_17_01_m,0.5
1,neutral,1.077,140,1,gi_ba_1958_08_17_01_m,0.5
1,neutral,0.895,141,0,gi_ba_1958_08_17_01_m,0.5
0,neutral,1.994,142,1,gi_ba_1958_08_17_01_m,0.5
0,neutral,1.112,143,0,gi_ba_1958_08_17_01_m,0.5
0,neutral,1.179,144,1,gi_ba_1958_08_17_01_m,0.5
0,neutral,0.984,145,0,gi_ba_1958_08_17_01_m,0.5
1,neutral,1.264,146,1,gi_ba_1958_08_17_01_m,0.5
1,neutral,1.099,147,1,gi_ba_1958_08_17_01_m,0.5
1,neutral,0.95,148,1,gi_ba_1958_08_17_01_m,0.5
1,neutral,0.838,149,0,gi_ba_1958_08_17_01_m,0.5
0,neutral,1.914,150,0,gi_ba_1958_08_17_01_m,0.5
0,neutral,2.497,151,0,gi_ba_1958_08_17_01_m,0.5
0,neutral,1.126,152,0,gi_ba_1958_08_17_01_m,0.5
1,neutral,1.22,153,1,gi_ba_1958_08_17_01_m,0.5
1,neutral,0.599,154,1,gi_ba_1958_08_17_01_m,0.5
1,neutral,0.898,155,1,gi_ba_1958_08_17_01_m,0.5
1,neutral,0.664,156,0,gi_ba_1958_08_17_01_m,0.5
0,neutral,2.196,157,1,gi_ba_1958_08_17_01_m,0.5
0,neutral,0.844,158,0,gi_ba_1958_08_17_01_m,0.5
0,neutral,1.848,159,1,gi_ba_1958_08_17_01_m,0.5
0,neutral,0.799,160,0,gi_ba_1958_08_17_01_m,0.5
