response,stim,rt,trial,feedback,subj_code,q_init
1,neutral,0.808255076040665,1,0,pa_me_1968_07_10_05_f,0.5
1,neutral,0.37,2,0,pa_me_1968_07_10_05_f,0.5
0,neutral,0.876,3,0,pa_me_1968_07_10_05_f,0.5
0,neutral,0.878463590684648,4,1,pa_me_1968_07_10_05_f,0.5
0,neutral,0.554,5,0,pa_me_1968_07_10_05_f,0.5
1,neutral,0.604,6,1,pa_me_1968_07_10_05_f,0.5
0,neutral,0.334,7,0,pa_me_1968_07_10_05_f,0.5
0,neutral,1.19,8,1,pa_me_1968_07_10_05_f,0.5
0,neutral,0.583,9,1,pa_me_1968_07_10_05_f,0.5
0,neutral,0.664,10,1,pa_me_1968_07_10_05_f,0.5
1,neutral,0.244,11,0,pa_me_1968_07_10_05_f,0.5
0,neutral,1.319,12,1,pa_me_1968_07_10_05_f,0.5
0,neutral,0.685,13,1,pa_me_1968_07_10_05_f,0.5
0,neutral,0.423,14,0,pa_me_1968_07_10_05_f,0.5
1,neutral,0.673,15,0,pa_me_1968_07_10_05_f,0.5
1,neutral,1.245,16,0,pa_me_1968_07_10_05_f,0.5
0,neutral,0.739,17,0,pa_me_1968_07_10_05_f,0.5
0,neutral,0.662,18,0,pa_me_1968_07_10_05_f,0.5
0,neutral,0.645,19,1,pa_me_1968_07_10_05_f,0.5
1,neutral,0.791244265185692,20,0,pa_me_1968_07_10_05_f,0.5
1,neutral,1.61,21,1,pa_me_1968_07_10_05_f,0.5
1,neutral,0.451,22,0,pa_me_1968_07_10_05_f,0.5
1,neutral,0.714,23,1,pa_me_1968_07_10_05_f,0.5
1,neutral,0.708,24,0,pa_me_1968_07_10_05_f,0.5
1,neutral,0.784,25,1,pa_me_1968_07_10_05_f,0.5
1,neutral,0.516,26,0,pa_me_1968_07_10_05_f,0.5
1,neutral,1.161,27,0,pa_me_1968_07_10_05_f,0.5
1,neutral,0.811,28,0,pa_me_1968_07_10_05_f,0.5
1,neutral,0.605,29,0,pa_me_1968_07_10_05_f,0.5
0,neutral,2.103,30,1,pa_me_1968_07_10_05_f,0.5
0,neutral,0.768,31,1,pa_me_1968_07_10_05_f,0.5
0,neutral,0.577,32,1,pa_me_1968_07_10_05_f,0.5
0,neutral,0.69,33,0,pa_me_1968_07_10_05_f,0.5
1,neutral,0.807,34,0,pa_me_1968_07_10_05_f,0.5
1,neutral,1.794,35,0,pa_me_1968_07_10_05_f,0.5
1,neutral,0.847,36,0,pa_me_1968_07_10_05_f,0.5
1,neutral,0.859,37,0,pa_me_1968_07_10_05_f,0.5
1,neutral,0.262,38,0,pa_me_1968_07_10_05_f,0.5
1,neutral,0.441,39,1,pa_me_1968_07_10_05_f,0.5
1,neutral,0.501,40,0,pa_me_1968_07_10_05_f,0.5
1,neutral,0.593,41,1,pa_me_1968_07_10_05_f,0.5
1,neutral,0.596,42,0,pa_me_1968_07_10_05_f,0.5
0,neutral,0.910514713888309,43,0,pa_me_1968_07_10_05_f,0.5
0,neutral,0.398,44,0,pa_me_1968_07_10_05_f,0.5
1,neutral,0.616,45,1,pa_me_1968_07_10_05_f,0.5
1,neutral,0.387,46,1,pa_me_1968_07_10_05_f,0.5
1,neutral,0.521,47,0,pa_me_1968_07_10_05_f,0.5
0,neutral,0.714,48,1,pa_me_1968_07_10_05_f,0.5
0,neutral,0.607,49,1,pa_me_1968_07_10_05_f,0.5
0,neutral,0.742,50,0,pa_me_1968_07_10_05_f,0.5
0,neutral,0.967,51,1,pa_me_1968_07_10_05_f,0.5
0,neutral,0.556,52,1,pa_me_1968_07_10_05_f,0.5
0,neutral,0.655,53,0,pa_me_1968_07_10_05_f,0.5
0,neutral,0.665,54,0,pa_me_1968_07_10_05_f,0.5
0,neutral,0.767,55,0,pa_me_1968_07_10_05_f,0.5
1,neutral,0.667,56,0,pa_me_1968_07_10_05_f,0.5
1,neutral,0.56,57,1,pa_me_1968_07_10_05_f,0.5
1,neutral,0.384,58,0,pa_me_1968_07_10_05_f,0.5
1,neutral,0.519,59,1,pa_me_1968_07_10_05_f,0.5
1,neutral,0.63,60,1,pa_me_1968_07_10_05_f,0.5
1,neutral,0.569,61,1,pa_me_1968_07_10_05_f,0.5
1,neutral,0.632,62,1,pa_me_1968_07_10_05_f,0.5
1,neutral,0.483,63,0,pa_me_1968_07_10_05_f,0.5
1,neutral,0.704,64,1,pa_me_1968_07_10_05_f,0.5
1,neutral,0.614,65,1,pa_me_1968_07_10_05_f,0.5
1,neutral,0.779,66,0,pa_me_1968_07_10_05_f,0.5
1,neutral,0.499,67,0,pa_me_1968_07_10_05_f,0.5
1,neutral,0.493,68,1,pa_me_1968_07_10_05_f,0.5
1,neutral,0.628,69,1,pa_me_1968_07_10_05_f,0.5
1,neutral,0.454,70,1,pa_me_1968_07_10_05_f,0.5
1,neutral,0.319,71,1,pa_me_1968_07_10_05_f,0.5
1,neutral,0.622,72,1,pa_me_1968_07_10_05_f,0.5
1,neutral,0.58,73,1,pa_me_1968_07_10_05_f,0.5
1,neutral,0.406,74,1,pa_me_1968_07_10_05_f,0.5
1,neutral,0.455,75,1,pa_me_1968_07_10_05_f,0.5
1,neutral,0.394,76,1,pa_me_1968_07_10_05_f,0.5
1,neutral,0.747,77,1,pa_me_1968_07_10_05_f,0.5
1,neutral,0.441,78,1,pa_me_1968_07_10_05_f,0.5
1,neutral,0.36,79,1,pa_me_1968_07_10_05_f,0.5
1,neutral,0.389,80,1,pa_me_1968_07_10_05_f,0.5
1,neutral,0.361,81,0,pa_me_1968_07_10_05_f,0.5
1,neutral,0.361,82,0,pa_me_1968_07_10_05_f,0.5
1,neutral,0.352,83,0,pa_me_1968_07_10_05_f,0.5
1,neutral,0.471,84,0,pa_me_1968_07_10_05_f,0.5
1,neutral,0.535,85,1,pa_me_1968_07_10_05_f,0.5
1,neutral,0.435,86,0,pa_me_1968_07_10_05_f,0.5
1,neutral,0.384,87,0,pa_me_1968_07_10_05_f,0.5
0,neutral,0.48,88,1,pa_me_1968_07_10_05_f,0.5
0,neutral,0.402,89,1,pa_me_1968_07_10_05_f,0.5
0,neutral,0.428,90,1,pa_me_1968_07_10_05_f,0.5
0,neutral,0.452,91,0,pa_me_1968_07_10_05_f,0.5
0,neutral,0.466,92,1,pa_me_1968_07_10_05_f,0.5
0,neutral,0.382,93,1,pa_me_1968_07_10_05_f,0.5
0,neutral,0.482,94,1,pa_me_1968_07_10_05_f,0.5
0,neutral,0.453,95,0,pa_me_1968_07_10_05_f,0.5
0,neutral,0.593,96,1,pa_me_1968_07_10_05_f,0.5
0,neutral,0.43,97,0,pa_me_1968_07_10_05_f,0.5
0,neutral,0.44,98,1,pa_me_1968_07_10_05_f,0.5
0,neutral,0.403,99,1,pa_me_1968_07_10_05_f,0.5
0,neutral,0.407,100,1,pa_me_1968_07_10_05_f,0.5
0,neutral,0.415,101,1,pa_me_1968_07_10_05_f,0.5
0,neutral,0.521,102,1,pa_me_1968_07_10_05_f,0.5
0,neutral,0.369,103,1,pa_me_1968_07_10_05_f,0.5
0,neutral,0.39,104,0,pa_me_1968_07_10_05_f,0.5
0,neutral,0.461,105,1,pa_me_1968_07_10_05_f,0.5
0,neutral,0.398,106,1,pa_me_1968_07_10_05_f,0.5
0,neutral,0.527,107,1,pa_me_1968_07_10_05_f,0.5
0,neutral,0.549,108,0,pa_me_1968_07_10_05_f,0.5
0,neutral,0.388,109,1,pa_me_1968_07_10_05_f,0.5
0,neutral,0.961,110,0,pa_me_1968_07_10_05_f,0.5
0,neutral,0.552,111,0,pa_me_1968_07_10_05_f,0.5
0,neutral,0.392,112,0,pa_me_1968_07_10_05_f,0.5
0,neutral,0.334,113,1,pa_me_1968_07_10_05_f,0.5
0,neutral,0.629,114,0,pa_me_1968_07_10_05_f,0.5
0,neutral,0.408,115,1,pa_me_1968_07_10_05_f,0.5
0,neutral,0.45,116,1,pa_me_1968_07_10_05_f,0.5
0,neutral,0.598,117,1,pa_me_1968_07_10_05_f,0.5
0,neutral,0.422,118,1,pa_me_1968_07_10_05_f,0.5
0,neutral,0.451,119,0,pa_me_1968_07_10_05_f,0.5
0,neutral,0.365,120,0,pa_me_1968_07_10_05_f,0.5
0,neutral,0.393,121,0,pa_me_1968_07_10_05_f,0.5
0,neutral,0.368,122,1,pa_me_1968_07_10_05_f,0.5
0,neutral,0.631,123,0,pa_me_1968_07_10_05_f,0.5
0,neutral,0.408,124,1,pa_me_1968_07_10_05_f,0.5
0,neutral,0.42,125,0,pa_me_1968_07_10_05_f,0.5
0,neutral,0.47,126,1,pa_me_1968_07_10_05_f,0.5
0,neutral,0.41,127,1,pa_me_1968_07_10_05_f,0.5
0,neutral,0.423,128,0,pa_me_1968_07_10_05_f,0.5
0,neutral,0.468,129,1,pa_me_1968_07_10_05_f,0.5
0,neutral,0.573,130,0,pa_me_1968_07_10_05_f,0.5
0,neutral,0.336,131,0,pa_me_1968_07_10_05_f,0.5
0,neutral,0.432,132,0,pa_me_1968_07_10_05_f,0.5
0,neutral,0.367,133,1,pa_me_1968_07_10_05_f,0.5
0,neutral,0.501,134,0,pa_me_1968_07_10_05_f,0.5
0,neutral,0.537,135,1,pa_me_1968_07_10_05_f,0.5
0,neutral,0.535,136,1,pa_me_1968_07_10_05_f,0.5
0,neutral,0.489,137,0,pa_me_1968_07_10_05_f,0.5
0,neutral,0.451,138,0,pa_me_1968_07_10_05_f,0.5
0,neutral,0.525,139,0,pa_me_1968_07_10_05_f,0.5
0,neutral,0.559,140,0,pa_me_1968_07_10_05_f,0.5
1,neutral,0.412,141,1,pa_me_1968_07_10_05_f,0.5
1,neutral,0.408,142,1,pa_me_1968_07_10_05_f,0.5
1,neutral,0.435,143,1,pa_me_1968_07_10_05_f,0.5
1,neutral,0.391,144,1,pa_me_1968_07_10_05_f,0.5
1,neutral,0.336,145,0,pa_me_1968_07_10_05_f,0.5
1,neutral,0.369,146,1,pa_me_1968_07_10_05_f,0.5
1,neutral,0.399,147,1,pa_me_1968_07_10_05_f,0.5
1,neutral,0.371,148,0,pa_me_1968_07_10_05_f,0.5
1,neutral,0.364,149,1,pa_me_1968_07_10_05_f,0.5
1,neutral,0.389,150,1,pa_me_1968_07_10_05_f,0.5
1,neutral,0.342,151,1,pa_me_1968_07_10_05_f,0.5
1,neutral,0.311,152,1,pa_me_1968_07_10_05_f,0.5
1,neutral,0.547,153,0,pa_me_1968_07_10_05_f,0.5
1,neutral,0.357,154,1,pa_me_1968_07_10_05_f,0.5
1,neutral,0.464,155,0,pa_me_1968_07_10_05_f,0.5
1,neutral,0.323,156,1,pa_me_1968_07_10_05_f,0.5
1,neutral,0.395,157,1,pa_me_1968_07_10_05_f,0.5
1,neutral,0.432,158,1,pa_me_1968_07_10_05_f,0.5
1,neutral,0.396,159,1,pa_me_1968_07_10_05_f,0.5
1,neutral,0.438,160,1,pa_me_1968_07_10_05_f,0.5
0,neutral,0.855179084626112,1,1,an_ve_1958_08_15_010_f,0.5
0,neutral,2.406,2,1,an_ve_1958_08_15_010_f,0.5
1,neutral,1.913,3,0,an_ve_1958_08_15_010_f,0.5
1,neutral,0.789756747466139,4,0,an_ve_1958_08_15_010_f,0.5
1,neutral,0.789849717316862,5,0,an_ve_1958_08_15_010_f,0.5
0,neutral,1.833,6,1,an_ve_1958_08_15_010_f,0.5
0,neutral,1.584,7,0,an_ve_1958_08_15_010_f,0.5
0,neutral,1.279,8,1,an_ve_1958_08_15_010_f,0.5
0,neutral,0.849,9,1,an_ve_1958_08_15_010_f,0.5
0,neutral,1.269,10,1,an_ve_1958_08_15_010_f,0.5
0,neutral,1.079,11,1,an_ve_1958_08_15_010_f,0.5
0,neutral,1.241,12,1,an_ve_1958_08_15_010_f,0.5
0,neutral,1.135,13,1,an_ve_1958_08_15_010_f,0.5
0,neutral,0.886,14,1,an_ve_1958_08_15_010_f,0.5
0,neutral,1.357,15,1,an_ve_1958_08_15_010_f,0.5
0,neutral,0.92,16,1,an_ve_1958_08_15_010_f,0.5
0,neutral,1.335,17,1,an_ve_1958_08_15_010_f,0.5
0,neutral,0.833,18,0,an_ve_1958_08_15_010_f,0.5
0,neutral,0.981,19,0,an_ve_1958_08_15_010_f,0.5
0,neutral,0.974,20,0,an_ve_1958_08_15_010_f,0.5
0,neutral,1.941,21,0,an_ve_1958_08_15_010_f,0.5
0,neutral,0.802,22,0,an_ve_1958_08_15_010_f,0.5
0,neutral,1.176,23,0,an_ve_1958_08_15_010_f,0.5
0,neutral,1.51,24,1,an_ve_1958_08_15_010_f,0.5
0,neutral,1.007,25,1,an_ve_1958_08_15_010_f,0.5
0,neutral,0.925,26,1,an_ve_1958_08_15_010_f,0.5
0,neutral,0.926,27,1,an_ve_1958_08_15_010_f,0.5
1,neutral,1.502,28,0,an_ve_1958_08_15_010_f,0.5
0,neutral,1.583,29,1,an_ve_1958_08_15_010_f,0.5
0,neutral,1.036,30,1,an_ve_1958_08_15_010_f,0.5
0,neutral,0.896,31,0,an_ve_1958_08_15_010_f,0.5
0,neutral,1.155,32,1,an_ve_1958_08_15_010_f,0.5
0,neutral,0.323,33,0,an_ve_1958_08_15_010_f,0.5
0,neutral,1.514,34,0,an_ve_1958_08_15_010_f,0.5
0,neutral,1.118,35,1,an_ve_1958_08_15_010_f,0.5
0,neutral,0.94,36,1,an_ve_1958_08_15_010_f,0.5
0,neutral,0.904,37,1,an_ve_1958_08_15_010_f,0.5
0,neutral,2.056,38,1,an_ve_1958_08_15_010_f,0.5
0,neutral,0.939,39,0,an_ve_1958_08_15_010_f,0.5
0,neutral,0.875,40,1,an_ve_1958_08_15_010_f,0.5
0,neutral,0.959,41,0,an_ve_1958_08_15_010_f,0.5
0,neutral,0.966,42,1,an_ve_1958_08_15_010_f,0.5
0,neutral,0.876,43,0,an_ve_1958_08_15_010_f,0.5
0,neutral,1.065,44,0,an_ve_1958_08_15_010_f,0.5
0,neutral,1.006,45,0,an_ve_1958_08_15_010_f,0.5
0,neutral,0.93,46,0,an_ve_1958_08_15_010_f,0.5
0,neutral,0.888,47,0,an_ve_1958_08_15_010_f,0.5
0,neutral,0.843,48,0,an_ve_1958_08_15_010_f,0.5
0,neutral,0.813,49,1,an_ve_1958_08_15_010_f,0.5
0,neutral,1.226,50,0,an_ve_1958_08_15_010_f,0.5
0,neutral,0.967,51,1,an_ve_1958_08_15_010_f,0.5
0,neutral,0.862,52,1,an_ve_1958_08_15_010_f,0.5
0,neutral,0.857,53,1,an_ve_1958_08_15_010_f,0.5
0,neutral,0.801,54,0,an_ve_1958_08_15_010_f,0.5
0,neutral,1.14,55,0,an_ve_1958_08_15_010_f,0.5
0,neutral,1.131,56,0,an_ve_1958_08_15_010_f,0.5
0,neutral,0.744,57,0,an_ve_1958_08_15_010_f,0.5
0,neutral,0.836,58,0,an_ve_1958_08_15_010_f,0.5
1,neutral,0.985,59,1,an_ve_1958_08_15_010_f,0.5
0,neutral,2.047,60,0,an_ve_1958_08_15_010_f,0.5
0,neutral,0.841,61,0,an_ve_1958_08_15_010_f,0.5
0,neutral,0.751,62,0,an_ve_1958_08_15_010_f,0.5
0,neutral,1.327,63,1,an_ve_1958_08_15_010_f,0.5
0,neutral,0.817,64,0,an_ve_1958_08_15_010_f,0.5
0,neutral,0.863,65,0,an_ve_1958_08_15_010_f,0.5
0,neutral,1.032,66,0,an_ve_1958_08_15_010_f,0.5
0,neutral,0.911,67,0,an_ve_1958_08_15_010_f,0.5
0,neutral,0.896,68,1,an_ve_1958_08_15_010_f,0.5
0,neutral,1.536,69,0,an_ve_1958_08_15_010_f,0.5
0,neutral,0.844,70,1,an_ve_1958_08_15_010_f,0.5
0,neutral,0.91,71,0,an_ve_1958_08_15_010_f,0.5
0,neutral,0.873,72,1,an_ve_1958_08_15_010_f,0.5
0,neutral,0.772,73,0,an_ve_1958_08_15_010_f,0.5
0,neutral,0.783,74,0,an_ve_1958_08_15_010_f,0.5
0,neutral,0.834,75,0,an_ve_1958_08_15_010_f,0.5
0,neutral,0.986,76,1,an_ve_1958_08_15_010_f,0.5
0,neutral,0.79,77,1,an_ve_1958_08_15_010_f,0.5
0,neutral,0.853,78,0,an_ve_1958_08_15_010_f,0.5
0,neutral,0.816,79,1,an_ve_1958_08_15_010_f,0.5
0,neutral,1.831,80,0,an_ve_1958_08_15_010_f,0.5
0,neutral,1.331,81,1,an_ve_1958_08_15_010_f,0.5
0,neutral,0.825,82,0,an_ve_1958_08_15_010_f,0.5
0,neutral,0.951,83,1,an_ve_1958_08_15_010_f,0.5
0,neutral,1.559,84,1,an_ve_1958_08_15_010_f,0.5
0,neutral,0.819,85,1,an_ve_1958_08_15_010_f,0.5
0,neutral,1.301,86,0,an_ve_1958_08_15_010_f,0.5
0,neutral,1.054,87,1,an_ve_1958_08_15_010_f,0.5
0,neutral,1.545,88,1,an_ve_1958_08_15_010_f,0.5
0,neutral,0.931,89,1,an_ve_1958_08_15_010_f,0.5
0,neutral,1.106,90,1,an_ve_1958_08_15_010_f,0.5
0,neutral,1.435,91,1,an_ve_1958_08_15_010_f,0.5
0,neutral,0.935,92,1,an_ve_1958_08_15_010_f,0.5
0,neutral,1.286,93,1,an_ve_1958_08_15_010_f,0.5
0,neutral,1.153,94,0,an_ve_1958_08_15_010_f,0.5
0,neutral,1.465,95,0,an_ve_1958_08_15_010_f,0.5
0,neutral,1.197,96,1,an_ve_1958_08_15_010_f,0.5
0,neutral,1.026,97,1,an_ve_1958_08_15_010_f,0.5
0,neutral,1.196,98,0,an_ve_1958_08_15_010_f,0.5
0,neutral,0.932,99,0,an_ve_1958_08_15_010_f,0.5
0,neutral,1.325,100,0,an_ve_1958_08_15_010_f,0.5
0,neutral,1.398,101,1,an_ve_1958_08_15_010_f,0.5
0,neutral,0.921,102,1,an_ve_1958_08_15_010_f,0.5
0,neutral,0.974,103,1,an_ve_1958_08_15_010_f,0.5
0,neutral,0.931,104,1,an_ve_1958_08_15_010_f,0.5
0,neutral,0.961,105,1,an_ve_1958_08_15_010_f,0.5
0,neutral,0.86,106,1,an_ve_1958_08_15_010_f,0.5
0,neutral,1.057,107,0,an_ve_1958_08_15_010_f,0.5
0,neutral,1.491,108,1,an_ve_1958_08_15_010_f,0.5
0,neutral,1.108,109,0,an_ve_1958_08_15_010_f,0.5
1,neutral,1.11,110,0,an_ve_1958_08_15_010_f,0.5
0,neutral,0.941,111,1,an_ve_1958_08_15_010_f,0.5
0,neutral,1.488,112,1,an_ve_1958_08_15_010_f,0.5
0,neutral,1.313,113,1,an_ve_1958_08_15_010_f,0.5
0,neutral,0.827,114,1,an_ve_1958_08_15_010_f,0.5
0,neutral,1.104,115,0,an_ve_1958_08_15_010_f,0.5
0,neutral,0.593,116,0,an_ve_1958_08_15_010_f,0.5
0,neutral,1.114,117,1,an_ve_1958_08_15_010_f,0.5
0,neutral,0.76,118,1,an_ve_1958_08_15_010_f,0.5
0,neutral,1.065,119,0,an_ve_1958_08_15_010_f,0.5
0,neutral,1.107,120,1,an_ve_1958_08_15_010_f,0.5
0,neutral,0.927,121,0,an_ve_1958_08_15_010_f,0.5
0,neutral,0.799,122,0,an_ve_1958_08_15_010_f,0.5
0,neutral,0.996,123,0,an_ve_1958_08_15_010_f,0.5
0,neutral,1.345,124,0,an_ve_1958_08_15_010_f,0.5
0,neutral,1.213,125,1,an_ve_1958_08_15_010_f,0.5
0,neutral,1.346,126,0,an_ve_1958_08_15_010_f,0.5
0,neutral,0.918324181240994,127,0,an_ve_1958_08_15_010_f,0.5
1,neutral,0.772859710038222,128,1,an_ve_1958_08_15_010_f,0.5
0,neutral,1.098,129,1,an_ve_1958_08_15_010_f,0.5
0,neutral,1.231,130,1,an_ve_1958_08_15_010_f,0.5
0,neutral,0.857,131,0,an_ve_1958_08_15_010_f,0.5
0,neutral,0.969,132,0,an_ve_1958_08_15_010_f,0.5
0,neutral,1.115,133,1,an_ve_1958_08_15_010_f,0.5
0,neutral,1.015,134,1,an_ve_1958_08_15_010_f,0.5
0,neutral,0.868,135,0,an_ve_1958_08_15_010_f,0.5
0,neutral,0.888,136,0,an_ve_1958_08_15_010_f,0.5
0,neutral,2.247,137,0,an_ve_1958_08_15_010_f,0.5
1,neutral,1.165,138,1,an_ve_1958_08_15_010_f,0.5
0,neutral,2.268,139,0,an_ve_1958_08_15_010_f,0.5
0,neutral,1.532,140,0,an_ve_1958_08_15_010_f,0.5
0,neutral,2.02,141,1,an_ve_1958_08_15_010_f,0.5
0,neutral,1.206,142,0,an_ve_1958_08_15_010_f,0.5
1,neutral,2.019,143,1,an_ve_1958_08_15_010_f,0.5
1,neutral,1.201,144,0,an_ve_1958_08_15_010_f,0.5
1,neutral,0.718,145,0,an_ve_1958_08_15_010_f,0.5
1,neutral,1.424,146,1,an_ve_1958_08_15_010_f,0.5
1,neutral,0.724,147,1,an_ve_1958_08_15_010_f,0.5
1,neutral,1.309,148,0,an_ve_1958_08_15_010_f,0.5
1,neutral,0.849,149,0,an_ve_1958_08_15_010_f,0.5
1,neutral,1.129,150,1,an_ve_1958_08_15_010_f,0.5
1,neutral,1.109,151,1,an_ve_1958_08_15_010_f,0.5
1,neutral,0.775090986455559,152,1,an_ve_1958_08_15_010_f,0.5
1,neutral,1.502,153,0,an_ve_1958_08_15_010_f,0.5
1,neutral,1.111,154,1,an_ve_1958_08_15_010_f,0.5
1,neutral,1.376,155,0,an_ve_1958_08_15_010_f,0.5
1,neutral,1.126,156,1,an_ve_1958_08_15_010_f,0.5
1,neutral,1.071,157,1,an_ve_1958_08_15_010_f,0.5
1,neutral,0.97,158,1,an_ve_1958_08_15_010_f,0.5
0,neutral,1.897,159,0,an_ve_1958_08_15_010_f,0.5
1,neutral,1.948,160,1,an_ve_1958_08_15_010_f,0.5
0,neutral,0.878184681024487,1,1,al_ba_1948_06_19_00_f,0.5
0,neutral,2.208,2,1,al_ba_1948_06_19_00_f,0.5
0,neutral,1.141,3,1,al_ba_1948_06_19_00_f,0.5
0,neutral,0.66,4,0,al_ba_1948_06_19_00_f,0.5
0,neutral,1.695,5,0,al_ba_1948_06_19_00_f,0.5
0,neutral,1.636,6,0,al_ba_1948_06_19_00_f,0.5
0,neutral,0.693,7,1,al_ba_1948_06_19_00_f,0.5
0,neutral,0.588,8,0,al_ba_1948_06_19_00_f,0.5
1,neutral,1.384,9,0,al_ba_1948_06_19_00_f,0.5
1,neutral,1.134,10,0,al_ba_1948_06_19_00_f,0.5
1,neutral,1.579,11,0,al_ba_1948_06_19_00_f,0.5
1,neutral,0.975,12,0,al_ba_1948_06_19_00_f,0.5
0,neutral,1.202,13,1,al_ba_1948_06_19_00_f,0.5
0,neutral,0.947,14,0,al_ba_1948_06_19_00_f,0.5
1,neutral,1.103,15,1,al_ba_1948_06_19_00_f,0.5
0,neutral,0.821,16,1,al_ba_1948_06_19_00_f,0.5
1,neutral,0.514,17,0,al_ba_1948_06_19_00_f,0.5
1,neutral,0.889,18,0,al_ba_1948_06_19_00_f,0.5
1,neutral,0.901,19,0,al_ba_1948_06_19_00_f,0.5
0,neutral,1.12,20,1,al_ba_1948_06_19_00_f,0.5
1,neutral,0.7,21,1,al_ba_1948_06_19_00_f,0.5
0,neutral,0.594,22,1,al_ba_1948_06_19_00_f,0.5
1,neutral,0.544,23,1,al_ba_1948_06_19_00_f,0.5
0,neutral,0.623,24,0,al_ba_1948_06_19_00_f,0.5
1,neutral,0.909,25,1,al_ba_1948_06_19_00_f,0.5
1,neutral,0.412,26,0,al_ba_1948_06_19_00_f,0.5
0,neutral,1.39,27,0,al_ba_1948_06_19_00_f,0.5
0,neutral,0.61,28,1,al_ba_1948_06_19_00_f,0.5
0,neutral,1.201,29,0,al_ba_1948_06_19_00_f,0.5
1,neutral,0.338,30,0,al_ba_1948_06_19_00_f,0.5
0,neutral,0.564,31,1,al_ba_1948_06_19_00_f,0.5
1,neutral,0.463,32,0,al_ba_1948_06_19_00_f,0.5
1,neutral,0.622,33,0,al_ba_1948_06_19_00_f,0.5
0,neutral,0.402,34,1,al_ba_1948_06_19_00_f,0.5
1,neutral,0.471,35,0,al_ba_1948_06_19_00_f,0.5
0,neutral,0.461,36,1,al_ba_1948_06_19_00_f,0.5
1,neutral,0.792824752539978,37,0,al_ba_1948_06_19_00_f,0.5
1,neutral,0.665,38,0,al_ba_1948_06_19_00_f,0.5
0,neutral,0.593,39,1,al_ba_1948_06_19_00_f,0.5
0,neutral,0.654,40,1,al_ba_1948_06_19_00_f,0.5
0,neutral,0.735,41,0,al_ba_1948_06_19_00_f,0.5
0,neutral,0.905,42,1,al_ba_1948_06_19_00_f,0.5
1,neutral,0.764957272618825,43,1,al_ba_1948_06_19_00_f,0.5
1,neutral,1.063,44,0,al_ba_1948_06_19_00_f,0.5
1,neutral,0.715,45,1,al_ba_1948_06_19_00_f,0.5
1,neutral,0.765236182278986,46,1,al_ba_1948_06_19_00_f,0.5
1,neutral,0.774,47,1,al_ba_1948_06_19_00_f,0.5
1,neutral,0.604,48,0,al_ba_1948_06_19_00_f,0.5
1,neutral,0.35,49,1,al_ba_1948_06_19_00_f,0.5
1,neutral,0.463,50,1,al_ba_1948_06_19_00_f,0.5
1,neutral,0.358,51,0,al_ba_1948_06_19_00_f,0.5
1,neutral,0.421,52,1,al_ba_1948_06_19_00_f,0.5
0,neutral,0.401,53,1,al_ba_1948_06_19_00_f,0.5
0,neutral,0.374,54,1,al_ba_1948_06_19_00_f,0.5
1,neutral,0.435,55,1,al_ba_1948_06_19_00_f,0.5
0,neutral,0.224,56,0,al_ba_1948_06_19_00_f,0.5
0,neutral,0.321,57,0,al_ba_1948_06_19_00_f,0.5
0,neutral,0.457,58,0,al_ba_1948_06_19_00_f,0.5
0,neutral,0.317,59,0,al_ba_1948_06_19_00_f,0.5
1,neutral,0.553,60,0,al_ba_1948_06_19_00_f,0.5
0,neutral,0.343,61,0,al_ba_1948_06_19_00_f,0.5
1,neutral,1.244,62,0,al_ba_1948_06_19_00_f,0.5
0,neutral,0.711,63,0,al_ba_1948_06_19_00_f,0.5
1,neutral,0.766909639483995,64,1,al_ba_1948_06_19_00_f,0.5
0,neutral,0.912560050604201,65,0,al_ba_1948_06_19_00_f,0.5
0,neutral,0.727,66,0,al_ba_1948_06_19_00_f,0.5
0,neutral,0.582,67,0,al_ba_1948_06_19_00_f,0.5
1,neutral,0.664,68,1,al_ba_1948_06_19_00_f,0.5
1,neutral,0.571,69,1,al_ba_1948_06_19_00_f,0.5
1,neutral,0.604,70,0,al_ba_1948_06_19_00_f,0.5
0,neutral,0.504,71,0,al_ba_1948_06_19_00_f,0.5
1,neutral,0.371,72,0,al_ba_1948_06_19_00_f,0.5
1,neutral,0.664,73,1,al_ba_1948_06_19_00_f,0.5
1,neutral,0.72,74,0,al_ba_1948_06_19_00_f,0.5
1,neutral,1.002,75,1,al_ba_1948_06_19_00_f,0.5
1,neutral,0.629,76,1,al_ba_1948_06_19_00_f,0.5
1,neutral,0.375,77,0,al_ba_1948_06_19_00_f,0.5
1,neutral,0.902,78,1,al_ba_1948_06_19_00_f,0.5
1,neutral,0.642,79,1,al_ba_1948_06_19_00_f,0.5
1,neutral,0.392,80,1,al_ba_1948_06_19_00_f,0.5
1,neutral,0.893,81,0,al_ba_1948_06_19_00_f,0.5
0,neutral,0.844,82,1,al_ba_1948_06_19_00_f,0.5
0,neutral,0.463,83,1,al_ba_1948_06_19_00_f,0.5
1,neutral,0.404,84,1,al_ba_1948_06_19_00_f,0.5
1,neutral,0.533,85,1,al_ba_1948_06_19_00_f,0.5
1,neutral,0.98,86,1,al_ba_1948_06_19_00_f,0.5
1,neutral,1.392,87,0,al_ba_1948_06_19_00_f,0.5
0,neutral,0.442,88,1,al_ba_1948_06_19_00_f,0.5
1,neutral,2.245,89,0,al_ba_1948_06_19_00_f,0.5
0,neutral,0.709,90,0,al_ba_1948_06_19_00_f,0.5
1,neutral,1.109,91,0,al_ba_1948_06_19_00_f,0.5
1,neutral,1.744,92,0,al_ba_1948_06_19_00_f,0.5
1,neutral,0.52,93,0,al_ba_1948_06_19_00_f,0.5
1,neutral,0.554,94,1,al_ba_1948_06_19_00_f,0.5
1,neutral,1.514,95,1,al_ba_1948_06_19_00_f,0.5
1,neutral,0.569,96,0,al_ba_1948_06_19_00_f,0.5
1,neutral,1.241,97,0,al_ba_1948_06_19_00_f,0.5
0,neutral,0.525,98,0,al_ba_1948_06_19_00_f,0.5
1,neutral,0.95,99,0,al_ba_1948_06_19_00_f,0.5
1,neutral,0.673,100,0,al_ba_1948_06_19_00_f,0.5
0,neutral,0.933,101,1,al_ba_1948_06_19_00_f,0.5
0,neutral,1.537,102,1,al_ba_1948_06_19_00_f,0.5
0,neutral,1.014,103,1,al_ba_1948_06_19_00_f,0.5
0,neutral,0.843,104,1,al_ba_1948_06_19_00_f,0.5
0,neutral,0.579,105,1,al_ba_1948_06_19_00_f,0.5
0,neutral,0.535,106,1,al_ba_1948_06_19_00_f,0.5
0,neutral,0.629,107,1,al_ba_1948_06_19_00_f,0.5
1,neutral,2.466,108,0,al_ba_1948_06_19_00_f,0.5
0,neutral,0.81,109,1,al_ba_1948_06_19_00_f,0.5
0,neutral,0.891,110,1,al_ba_1948_06_19_00_f,0.5
0,neutral,0.411,111,0,al_ba_1948_06_19_00_f,0.5
1,neutral,1.543,112,1,al_ba_1948_06_19_00_f,0.5
1,neutral,0.85,113,0,al_ba_1948_06_19_00_f,0.5
0,neutral,1.105,114,0,al_ba_1948_06_19_00_f,0.5
1,neutral,1.474,115,0,al_ba_1948_06_19_00_f,0.5
0,neutral,0.763,116,1,al_ba_1948_06_19_00_f,0.5
0,neutral,0.815,117,0,al_ba_1948_06_19_00_f,0.5
1,neutral,1.411,118,0,al_ba_1948_06_19_00_f,0.5
0,neutral,0.647,119,1,al_ba_1948_06_19_00_f,0.5
0,neutral,1.033,120,0,al_ba_1948_06_19_00_f,0.5
1,neutral,0.597,121,1,al_ba_1948_06_19_00_f,0.5
0,neutral,0.865,122,0,al_ba_1948_06_19_00_f,0.5
0,neutral,1.05,123,0,al_ba_1948_06_19_00_f,0.5
0,neutral,1.26,124,0,al_ba_1948_06_19_00_f,0.5
0,neutral,1.89,125,1,al_ba_1948_06_19_00_f,0.5
1,neutral,1.312,126,1,al_ba_1948_06_19_00_f,0.5
1,neutral,0.901,127,1,al_ba_1948_06_19_00_f,0.5
1,neutral,1.464,128,1,al_ba_1948_06_19_00_f,0.5
1,neutral,2.222,129,1,al_ba_1948_06_19_00_f,0.5
1,neutral,0.88,130,0,al_ba_1948_06_19_00_f,0.5
1,neutral,1.721,131,0,al_ba_1948_06_19_00_f,0.5
1,neutral,1.129,132,1,al_ba_1948_06_19_00_f,0.5
1,neutral,0.773324559291833,133,1,al_ba_1948_06_19_00_f,0.5
1,neutral,1.259,134,1,al_ba_1948_06_19_00_f,0.5
1,neutral,0.712,135,1,al_ba_1948_06_19_00_f,0.5
1,neutral,1.439,136,0,al_ba_1948_06_19_00_f,0.5
1,neutral,0.796,137,0,al_ba_1948_06_19_00_f,0.5
1,neutral,0.773789408437451,138,1,al_ba_1948_06_19_00_f,0.5
1,neutral,0.773882378396168,139,1,al_ba_1948_06_19_00_f,0.5
0,neutral,0.919532789300385,140,0,al_ba_1948_06_19_00_f,0.5
0,neutral,0.929,141,0,al_ba_1948_06_19_00_f,0.5
1,neutral,1.15,142,0,al_ba_1948_06_19_00_f,0.5
1,neutral,1.143,143,1,al_ba_1948_06_19_00_f,0.5
1,neutral,0.579,144,1,al_ba_1948_06_19_00_f,0.5
1,neutral,1.848,145,1,al_ba_1948_06_19_00_f,0.5
1,neutral,0.664,146,0,al_ba_1948_06_19_00_f,0.5
1,neutral,0.842,147,1,al_ba_1948_06_19_00_f,0.5
1,neutral,0.678,148,1,al_ba_1948_06_19_00_f,0.5
1,neutral,1.014,149,0,al_ba_1948_06_19_00_f,0.5
1,neutral,0.771,150,1,al_ba_1948_06_19_00_f,0.5
1,neutral,0.743,151,1,al_ba_1948_06_19_00_f,0.5
1,neutral,0.808,152,1,al_ba_1948_06_19_00_f,0.5
1,neutral,0.66,153,1,al_ba_1948_06_19_00_f,0.5
1,neutral,1.533,154,0,al_ba_1948_06_19_00_f,0.5
1,neutral,0.909,155,0,al_ba_1948_06_19_00_f,0.5
1,neutral,1.412,156,1,al_ba_1948_06_19_00_f,0.5
1,neutral,1.817,157,0,al_ba_1948_06_19_00_f,0.5
0,neutral,0.634,158,0,al_ba_1948_06_19_00_f,0.5
0,neutral,0.921299216572105,159,0,al_ba_1948_06_19_00_f,0.5
1,neutral,1.457,160,1,al_ba_1948_06_19_00_f,0.5
1,neutral,0.808255076040665,1,0,lo_va_1955_11_25_06_f,0.5
1,neutral,1.577,2,0,lo_va_1955_11_25_06_f,0.5
0,neutral,0.832,3,0,lo_va_1955_11_25_06_f,0.5
0,neutral,1.514,4,1,lo_va_1955_11_25_06_f,0.5
0,neutral,1.229,5,0,lo_va_1955_11_25_06_f,0.5
0,neutral,1.249,6,0,lo_va_1955_11_25_06_f,0.5
0,neutral,1.196,7,1,lo_va_1955_11_25_06_f,0.5
0,neutral,1.424,8,0,lo_va_1955_11_25_06_f,0.5
0,neutral,1.134,9,0,lo_va_1955_11_25_06_f,0.5
1,neutral,1.463,10,0,lo_va_1955_11_25_06_f,0.5
1,neutral,0.79040753652919,11,0,lo_va_1955_11_25_06_f,0.5
1,neutral,0.664,12,0,lo_va_1955_11_25_06_f,0.5
1,neutral,0.538,13,0,lo_va_1955_11_25_06_f,0.5
1,neutral,0.638,14,1,lo_va_1955_11_25_06_f,0.5
0,neutral,0.769,15,0,lo_va_1955_11_25_06_f,0.5
0,neutral,0.953,16,1,lo_va_1955_11_25_06_f,0.5
0,neutral,1.376,17,1,lo_va_1955_11_25_06_f,0.5
0,neutral,1.022,18,1,lo_va_1955_11_25_06_f,0.5
1,neutral,0.644,19,1,lo_va_1955_11_25_06_f,0.5
1,neutral,0.761,20,0,lo_va_1955_11_25_06_f,0.5
0,neutral,0.865,21,1,lo_va_1955_11_25_06_f,0.5
0,neutral,1.699,22,1,lo_va_1955_11_25_06_f,0.5
1,neutral,1.852,23,0,lo_va_1955_11_25_06_f,0.5
0,neutral,1.685,24,0,lo_va_1955_11_25_06_f,0.5
0,neutral,0.744,25,1,lo_va_1955_11_25_06_f,0.5
0,neutral,1.177,26,1,lo_va_1955_11_25_06_f,0.5
1,neutral,1.224,27,1,lo_va_1955_11_25_06_f,0.5
0,neutral,0.555,28,1,lo_va_1955_11_25_06_f,0.5
1,neutral,0.636,29,0,lo_va_1955_11_25_06_f,0.5
1,neutral,0.792173963692916,30,0,lo_va_1955_11_25_06_f,0.5
1,neutral,0.848,31,0,lo_va_1955_11_25_06_f,0.5
1,neutral,0.956,32,0,lo_va_1955_11_25_06_f,0.5
1,neutral,0.764,33,0,lo_va_1955_11_25_06_f,0.5
1,neutral,0.42,34,0,lo_va_1955_11_25_06_f,0.5
1,neutral,0.506,35,0,lo_va_1955_11_25_06_f,0.5
0,neutral,1.325,36,0,lo_va_1955_11_25_06_f,0.5
0,neutral,0.508,37,0,lo_va_1955_11_25_06_f,0.5
1,neutral,0.655,38,0,lo_va_1955_11_25_06_f,0.5
1,neutral,0.798,39,0,lo_va_1955_11_25_06_f,0.5
0,neutral,0.698,40,1,lo_va_1955_11_25_06_f,0.5
1,neutral,0.455,41,1,lo_va_1955_11_25_06_f,0.5
0,neutral,0.588,42,1,lo_va_1955_11_25_06_f,0.5
1,neutral,0.914,43,1,lo_va_1955_11_25_06_f,0.5
0,neutral,1.755,44,0,lo_va_1955_11_25_06_f,0.5
0,neutral,1.275,45,1,lo_va_1955_11_25_06_f,0.5
1,neutral,0.509,46,0,lo_va_1955_11_25_06_f,0.5
0,neutral,1.764,47,0,lo_va_1955_11_25_06_f,0.5
1,neutral,1.628,48,1,lo_va_1955_11_25_06_f,0.5
1,neutral,0.633,49,1,lo_va_1955_11_25_06_f,0.5
0,neutral,0.863,50,1,lo_va_1955_11_25_06_f,0.5
1,neutral,1.068,51,0,lo_va_1955_11_25_06_f,0.5
0,neutral,0.911351442436816,52,0,lo_va_1955_11_25_06_f,0.5
1,neutral,0.714,53,1,lo_va_1955_11_25_06_f,0.5
0,neutral,0.411,54,0,lo_va_1955_11_25_06_f,0.5
1,neutral,0.94,55,1,lo_va_1955_11_25_06_f,0.5
1,neutral,0.489,56,1,lo_va_1955_11_25_06_f,0.5
0,neutral,0.816,57,1,lo_va_1955_11_25_06_f,0.5
1,neutral,0.99,58,1,lo_va_1955_11_25_06_f,0.5
0,neutral,0.842,59,0,lo_va_1955_11_25_06_f,0.5
1,neutral,1.385,60,0,lo_va_1955_11_25_06_f,0.5
1,neutral,1.03,61,0,lo_va_1955_11_25_06_f,0.5
0,neutral,0.693,62,0,lo_va_1955_11_25_06_f,0.5
0,neutral,1.271,63,0,lo_va_1955_11_25_06_f,0.5
0,neutral,0.481,64,0,lo_va_1955_11_25_06_f,0.5
0,neutral,0.965,65,0,lo_va_1955_11_25_06_f,0.5
1,neutral,0.836,66,1,lo_va_1955_11_25_06_f,0.5
1,neutral,0.786,67,1,lo_va_1955_11_25_06_f,0.5
0,neutral,0.488,68,0,lo_va_1955_11_25_06_f,0.5
0,neutral,0.962,69,0,lo_va_1955_11_25_06_f,0.5
1,neutral,0.844,70,1,lo_va_1955_11_25_06_f,0.5
1,neutral,0.74,71,0,lo_va_1955_11_25_06_f,0.5
1,neutral,1.042,72,1,lo_va_1955_11_25_06_f,0.5
0,neutral,1.051,73,0,lo_va_1955_11_25_06_f,0.5
0,neutral,1.616,74,0,lo_va_1955_11_25_06_f,0.5
1,neutral,0.852,75,0,lo_va_1955_11_25_06_f,0.5
0,neutral,0.828,76,0,lo_va_1955_11_25_06_f,0.5
1,neutral,0.789,77,1,lo_va_1955_11_25_06_f,0.5
1,neutral,0.635,78,1,lo_va_1955_11_25_06_f,0.5
0,neutral,0.728,79,1,lo_va_1955_11_25_06_f,0.5
1,neutral,0.882,80,1,lo_va_1955_11_25_06_f,0.5
0,neutral,1.099,81,0,lo_va_1955_11_25_06_f,0.5
1,neutral,1.765,82,0,lo_va_1955_11_25_06_f,0.5
0,neutral,0.828,83,1,lo_va_1955_11_25_06_f,0.5
0,neutral,0.969,84,0,lo_va_1955_11_25_06_f,0.5
1,neutral,1.584,85,0,lo_va_1955_11_25_06_f,0.5
1,neutral,1.197,86,1,lo_va_1955_11_25_06_f,0.5
0,neutral,1.051,87,0,lo_va_1955_11_25_06_f,0.5
0,neutral,1.381,88,1,lo_va_1955_11_25_06_f,0.5
1,neutral,1.563,89,0,lo_va_1955_11_25_06_f,0.5
1,neutral,0.546,90,0,lo_va_1955_11_25_06_f,0.5
1,neutral,0.756,91,0,lo_va_1955_11_25_06_f,0.5
0,neutral,0.812,92,1,lo_va_1955_11_25_06_f,0.5
0,neutral,0.705,93,1,lo_va_1955_11_25_06_f,0.5
1,neutral,0.587,94,0,lo_va_1955_11_25_06_f,0.5
0,neutral,1.346,95,0,lo_va_1955_11_25_06_f,0.5
0,neutral,0.659,96,1,lo_va_1955_11_25_06_f,0.5
1,neutral,0.647,97,0,lo_va_1955_11_25_06_f,0.5
1,neutral,1.444,98,0,lo_va_1955_11_25_06_f,0.5
1,neutral,1.328,99,0,lo_va_1955_11_25_06_f,0.5
1,neutral,0.688,100,0,lo_va_1955_11_25_06_f,0.5
0,neutral,0.908,101,1,lo_va_1955_11_25_06_f,0.5
0,neutral,1.262,102,1,lo_va_1955_11_25_06_f,0.5
1,neutral,1.512,103,0,lo_va_1955_11_25_06_f,0.5
1,neutral,1.4,104,0,lo_va_1955_11_25_06_f,0.5
0,neutral,1.086,105,1,lo_va_1955_11_25_06_f,0.5
0,neutral,1.383,106,1,lo_va_1955_11_25_06_f,0.5
0,neutral,0.888039485309053,107,1,lo_va_1955_11_25_06_f,0.5
1,neutral,1.667,108,0,lo_va_1955_11_25_06_f,0.5
1,neutral,1.215,109,1,lo_va_1955_11_25_06_f,0.5
1,neutral,0.795,110,1,lo_va_1955_11_25_06_f,0.5
0,neutral,0.994,111,1,lo_va_1955_11_25_06_f,0.5
0,neutral,0.561,112,0,lo_va_1955_11_25_06_f,0.5
0,neutral,2.385,113,0,lo_va_1955_11_25_06_f,0.5
1,neutral,1.316,114,1,lo_va_1955_11_25_06_f,0.5
1,neutral,0.795,115,0,lo_va_1955_11_25_06_f,0.5
0,neutral,0.932,116,1,lo_va_1955_11_25_06_f,0.5
0,neutral,0.765,117,1,lo_va_1955_11_25_06_f,0.5
1,neutral,0.718,118,1,lo_va_1955_11_25_06_f,0.5
1,neutral,0.646,119,1,lo_va_1955_11_25_06_f,0.5
0,neutral,0.827,120,1,lo_va_1955_11_25_06_f,0.5
0,neutral,0.497,121,1,lo_va_1955_11_25_06_f,0.5
1,neutral,0.971,122,1,lo_va_1955_11_25_06_f,0.5
1,neutral,0.771,123,1,lo_va_1955_11_25_06_f,0.5
0,neutral,1.033,124,0,lo_va_1955_11_25_06_f,0.5
1,neutral,1.999,125,1,lo_va_1955_11_25_06_f,0.5
0,neutral,1.034,126,0,lo_va_1955_11_25_06_f,0.5
0,neutral,1.438,127,1,lo_va_1955_11_25_06_f,0.5
0,neutral,0.77,128,0,lo_va_1955_11_25_06_f,0.5
0,neutral,1.339,129,0,lo_va_1955_11_25_06_f,0.5
1,neutral,1.418,130,0,lo_va_1955_11_25_06_f,0.5
1,neutral,0.894,131,1,lo_va_1955_11_25_06_f,0.5
1,neutral,1.009,132,1,lo_va_1955_11_25_06_f,0.5
0,neutral,0.687,133,1,lo_va_1955_11_25_06_f,0.5
1,neutral,0.928,134,1,lo_va_1955_11_25_06_f,0.5
0,neutral,0.995,135,1,lo_va_1955_11_25_06_f,0.5
1,neutral,0.913,136,0,lo_va_1955_11_25_06_f,0.5
1,neutral,1.163,137,1,lo_va_1955_11_25_06_f,0.5
1,neutral,0.474,138,1,lo_va_1955_11_25_06_f,0.5
0,neutral,0.942,139,0,lo_va_1955_11_25_06_f,0.5
0,neutral,1.846,140,0,lo_va_1955_11_25_06_f,0.5
0,neutral,1.321,141,0,lo_va_1955_11_25_06_f,0.5
1,neutral,1.528,142,1,lo_va_1955_11_25_06_f,0.5
1,neutral,0.674,143,1,lo_va_1955_11_25_06_f,0.5
0,neutral,0.765,144,0,lo_va_1955_11_25_06_f,0.5
0,neutral,1.597,145,0,lo_va_1955_11_25_06_f,0.5
1,neutral,1.026,146,1,lo_va_1955_11_25_06_f,0.5
1,neutral,0.711,147,1,lo_va_1955_11_25_06_f,0.5
1,neutral,0.905,148,0,lo_va_1955_11_25_06_f,0.5
0,neutral,1.204,149,0,lo_va_1955_11_25_06_f,0.5
1,neutral,1.128,150,0,lo_va_1955_11_25_06_f,0.5
0,neutral,1.152,151,0,lo_va_1955_11_25_06_f,0.5
0,neutral,1.032,152,0,lo_va_1955_11_25_06_f,0.5
1,neutral,2.108,153,0,lo_va_1955_11_25_06_f,0.5
1,neutral,1.13,154,0,lo_va_1955_11_25_06_f,0.5
0,neutral,1.274,155,0,lo_va_1955_11_25_06_f,0.5
0,neutral,0.527,156,0,lo_va_1955_11_25_06_f,0.5
1,neutral,1.193,157,0,lo_va_1955_11_25_06_f,0.5
0,neutral,1.148,158,0,lo_va_1955_11_25_06_f,0.5
0,neutral,1.223,159,1,lo_va_1955_11_25_06_f,0.5
0,neutral,0.955,160,0,lo_va_1955_11_25_06_f,0.5
1,neutral,0.808255076040665,1,0,ma_za_1959_12_04_04_f,0.5
1,neutral,1.182,2,1,ma_za_1959_12_04_04_f,0.5
1,neutral,0.637,3,1,ma_za_1959_12_04_04_f,0.5
1,neutral,0.578,4,0,ma_za_1959_12_04_04_f,0.5
1,neutral,0.336,5,0,ma_za_1959_12_04_04_f,0.5
0,neutral,0.818,6,1,ma_za_1959_12_04_04_f,0.5
1,neutral,0.64,7,0,ma_za_1959_12_04_04_f,0.5
0,neutral,0.453,8,0,ma_za_1959_12_04_04_f,0.5
0,neutral,0.964,9,1,ma_za_1959_12_04_04_f,0.5
1,neutral,0.469,10,1,ma_za_1959_12_04_04_f,0.5
1,neutral,0.441,11,0,ma_za_1959_12_04_04_f,0.5
1,neutral,0.726,12,1,ma_za_1959_12_04_04_f,0.5
1,neutral,0.626,13,0,ma_za_1959_12_04_04_f,0.5
1,neutral,0.646,14,1,ma_za_1959_12_04_04_f,0.5
1,neutral,0.667,15,0,ma_za_1959_12_04_04_f,0.5
1,neutral,0.519,16,0,ma_za_1959_12_04_04_f,0.5
1,neutral,0.597,17,0,ma_za_1959_12_04_04_f,0.5
1,neutral,1.019,18,0,ma_za_1959_12_04_04_f,0.5
1,neutral,0.623,19,0,ma_za_1959_12_04_04_f,0.5
0,neutral,0.401,20,1,ma_za_1959_12_04_04_f,0.5
0,neutral,0.851,21,1,ma_za_1959_12_04_04_f,0.5
0,neutral,0.512,22,0,ma_za_1959_12_04_04_f,0.5
1,neutral,0.716,23,0,ma_za_1959_12_04_04_f,0.5
0,neutral,0.546,24,1,ma_za_1959_12_04_04_f,0.5
0,neutral,0.769,25,1,ma_za_1959_12_04_04_f,0.5
1,neutral,0.969,26,0,ma_za_1959_12_04_04_f,0.5
1,neutral,0.803,27,1,ma_za_1959_12_04_04_f,0.5
0,neutral,0.541,28,1,ma_za_1959_12_04_04_f,0.5
0,neutral,0.867,29,1,ma_za_1959_12_04_04_f,0.5
1,neutral,0.496,30,0,ma_za_1959_12_04_04_f,0.5
0,neutral,0.708,31,1,ma_za_1959_12_04_04_f,0.5
1,neutral,0.666,32,1,ma_za_1959_12_04_04_f,0.5
1,neutral,1.069,33,0,ma_za_1959_12_04_04_f,0.5
1,neutral,0.555,34,1,ma_za_1959_12_04_04_f,0.5
0,neutral,0.985,35,1,ma_za_1959_12_04_04_f,0.5
0,neutral,0.798,36,0,ma_za_1959_12_04_04_f,0.5
0,neutral,0.743,37,1,ma_za_1959_12_04_04_f,0.5
0,neutral,0.742,38,1,ma_za_1959_12_04_04_f,0.5
0,neutral,0.496,39,1,ma_za_1959_12_04_04_f,0.5
0,neutral,0.929,40,0,ma_za_1959_12_04_04_f,0.5
0,neutral,0.545,41,0,ma_za_1959_12_04_04_f,0.5
1,neutral,0.661,42,1,ma_za_1959_12_04_04_f,0.5
1,neutral,0.907,43,1,ma_za_1959_12_04_04_f,0.5
1,neutral,0.635,44,1,ma_za_1959_12_04_04_f,0.5
0,neutral,1.11,45,0,ma_za_1959_12_04_04_f,0.5
1,neutral,0.45,46,1,ma_za_1959_12_04_04_f,0.5
1,neutral,0.75,47,1,ma_za_1959_12_04_04_f,0.5
0,neutral,0.711,48,1,ma_za_1959_12_04_04_f,0.5
0,neutral,0.572,49,1,ma_za_1959_12_04_04_f,0.5
0,neutral,0.769,50,0,ma_za_1959_12_04_04_f,0.5
1,neutral,0.668,51,1,ma_za_1959_12_04_04_f,0.5
0,neutral,0.753,52,1,ma_za_1959_12_04_04_f,0.5
1,neutral,0.62,53,1,ma_za_1959_12_04_04_f,0.5
0,neutral,0.572,54,0,ma_za_1959_12_04_04_f,0.5
1,neutral,0.469,55,1,ma_za_1959_12_04_04_f,0.5
1,neutral,0.535,56,0,ma_za_1959_12_04_04_f,0.5
1,neutral,0.78,57,0,ma_za_1959_12_04_04_f,0.5
0,neutral,0.752,58,0,ma_za_1959_12_04_04_f,0.5
0,neutral,0.41,59,0,ma_za_1959_12_04_04_f,0.5
1,neutral,0.626,60,1,ma_za_1959_12_04_04_f,0.5
1,neutral,0.64,61,1,ma_za_1959_12_04_04_f,0.5
1,neutral,0.345,62,0,ma_za_1959_12_04_04_f,0.5
1,neutral,0.477,63,1,ma_za_1959_12_04_04_f,0.5
0,neutral,0.514,64,0,ma_za_1959_12_04_04_f,0.5
1,neutral,0.463,65,0,ma_za_1959_12_04_04_f,0.5
1,neutral,0.579,66,0,ma_za_1959_12_04_04_f,0.5
0,neutral,0.326,67,1,ma_za_1959_12_04_04_f,0.5
0,neutral,0.5,68,0,ma_za_1959_12_04_04_f,0.5
0,neutral,0.513,69,1,ma_za_1959_12_04_04_f,0.5
1,neutral,0.534,70,1,ma_za_1959_12_04_04_f,0.5
1,neutral,0.503,71,1,ma_za_1959_12_04_04_f,0.5
1,neutral,0.57,72,1,ma_za_1959_12_04_04_f,0.5
1,neutral,0.357,73,1,ma_za_1959_12_04_04_f,0.5
1,neutral,0.404,74,1,ma_za_1959_12_04_04_f,0.5
1,neutral,0.736,75,0,ma_za_1959_12_04_04_f,0.5
1,neutral,0.48,76,1,ma_za_1959_12_04_04_f,0.5
1,neutral,0.341,77,1,ma_za_1959_12_04_04_f,0.5
1,neutral,0.343,78,1,ma_za_1959_12_04_04_f,0.5
1,neutral,0.414,79,0,ma_za_1959_12_04_04_f,0.5
1,neutral,0.65,80,1,ma_za_1959_12_04_04_f,0.5
1,neutral,0.521,81,1,ma_za_1959_12_04_04_f,0.5
1,neutral,0.378,82,1,ma_za_1959_12_04_04_f,0.5
1,neutral,0.394,83,0,ma_za_1959_12_04_04_f,0.5
1,neutral,0.473,84,0,ma_za_1959_12_04_04_f,0.5
1,neutral,0.824,85,0,ma_za_1959_12_04_04_f,0.5
1,neutral,0.533,86,0,ma_za_1959_12_04_04_f,0.5
1,neutral,0.899,87,0,ma_za_1959_12_04_04_f,0.5
0,neutral,0.512,88,0,ma_za_1959_12_04_04_f,0.5
1,neutral,0.94,89,0,ma_za_1959_12_04_04_f,0.5
1,neutral,0.885,90,0,ma_za_1959_12_04_04_f,0.5
1,neutral,0.567,91,0,ma_za_1959_12_04_04_f,0.5
0,neutral,0.477,92,1,ma_za_1959_12_04_04_f,0.5
1,neutral,0.931,93,0,ma_za_1959_12_04_04_f,0.5
1,neutral,0.683,94,1,ma_za_1959_12_04_04_f,0.5
1,neutral,0.421,95,0,ma_za_1959_12_04_04_f,0.5
1,neutral,0.758,96,1,ma_za_1959_12_04_04_f,0.5
1,neutral,0.607,97,0,ma_za_1959_12_04_04_f,0.5
1,neutral,0.63,98,0,ma_za_1959_12_04_04_f,0.5
0,neutral,0.664,99,1,ma_za_1959_12_04_04_f,0.5
1,neutral,1.269,100,0,ma_za_1959_12_04_04_f,0.5
1,neutral,0.748,101,1,ma_za_1959_12_04_04_f,0.5
1,neutral,0.466,102,1,ma_za_1959_12_04_04_f,0.5
1,neutral,0.419,103,0,ma_za_1959_12_04_04_f,0.5
1,neutral,0.672,104,1,ma_za_1959_12_04_04_f,0.5
1,neutral,0.378,105,1,ma_za_1959_12_04_04_f,0.5
1,neutral,0.561,106,1,ma_za_1959_12_04_04_f,0.5
1,neutral,0.644,107,1,ma_za_1959_12_04_04_f,0.5
1,neutral,0.366,108,0,ma_za_1959_12_04_04_f,0.5
1,neutral,0.321,109,0,ma_za_1959_12_04_04_f,0.5
1,neutral,0.485,110,0,ma_za_1959_12_04_04_f,0.5
1,neutral,0.637,111,0,ma_za_1959_12_04_04_f,0.5
1,neutral,0.665,112,0,ma_za_1959_12_04_04_f,0.5
1,neutral,0.898,113,1,ma_za_1959_12_04_04_f,0.5
1,neutral,0.53,114,0,ma_za_1959_12_04_04_f,0.5
0,neutral,0.613,115,1,ma_za_1959_12_04_04_f,0.5
1,neutral,0.795,116,0,ma_za_1959_12_04_04_f,0.5
0,neutral,0.525,117,1,ma_za_1959_12_04_04_f,0.5
0,neutral,0.734,118,1,ma_za_1959_12_04_04_f,0.5
1,neutral,0.826,119,0,ma_za_1959_12_04_04_f,0.5
0,neutral,0.79,120,1,ma_za_1959_12_04_04_f,0.5
0,neutral,0.531,121,1,ma_za_1959_12_04_04_f,0.5
0,neutral,0.658,122,0,ma_za_1959_12_04_04_f,0.5
0,neutral,0.471,123,0,ma_za_1959_12_04_04_f,0.5
0,neutral,0.434,124,0,ma_za_1959_12_04_04_f,0.5
1,neutral,0.493,125,1,ma_za_1959_12_04_04_f,0.5
1,neutral,0.548,126,1,ma_za_1959_12_04_04_f,0.5
1,neutral,0.321,127,1,ma_za_1959_12_04_04_f,0.5
1,neutral,0.437,128,1,ma_za_1959_12_04_04_f,0.5
1,neutral,0.491,129,0,ma_za_1959_12_04_04_f,0.5
1,neutral,0.607,130,1,ma_za_1959_12_04_04_f,0.5
1,neutral,0.503,131,1,ma_za_1959_12_04_04_f,0.5
1,neutral,0.362,132,1,ma_za_1959_12_04_04_f,0.5
1,neutral,0.656,133,1,ma_za_1959_12_04_04_f,0.5
1,neutral,0.554,134,1,ma_za_1959_12_04_04_f,0.5
1,neutral,0.531,135,1,ma_za_1959_12_04_04_f,0.5
1,neutral,0.583,136,1,ma_za_1959_12_04_04_f,0.5
1,neutral,0.639,137,0,ma_za_1959_12_04_04_f,0.5
1,neutral,0.427,138,1,ma_za_1959_12_04_04_f,0.5
1,neutral,0.474,139,0,ma_za_1959_12_04_04_f,0.5
1,neutral,0.784,140,0,ma_za_1959_12_04_04_f,0.5
1,neutral,0.43,141,1,ma_za_1959_12_04_04_f,0.5
1,neutral,0.359,142,1,ma_za_1959_12_04_04_f,0.5
1,neutral,0.691,143,0,ma_za_1959_12_04_04_f,0.5
1,neutral,1.002,144,1,ma_za_1959_12_04_04_f,0.5
1,neutral,0.555,145,0,ma_za_1959_12_04_04_f,0.5
1,neutral,0.345,146,0,ma_za_1959_12_04_04_f,0.5
1,neutral,0.511,147,1,ma_za_1959_12_04_04_f,0.5
1,neutral,0.702,148,1,ma_za_1959_12_04_04_f,0.5
1,neutral,0.629,149,1,ma_za_1959_12_04_04_f,0.5
1,neutral,0.379,150,1,ma_za_1959_12_04_04_f,0.5
1,neutral,0.46,151,1,ma_za_1959_12_04_04_f,0.5
1,neutral,0.812,152,0,ma_za_1959_12_04_04_f,0.5
1,neutral,0.548,153,1,ma_za_1959_12_04_04_f,0.5
1,neutral,0.392,154,1,ma_za_1959_12_04_04_f,0.5
1,neutral,0.441,155,1,ma_za_1959_12_04_04_f,0.5
1,neutral,0.52,156,1,ma_za_1959_12_04_04_f,0.5
1,neutral,0.475,157,0,ma_za_1959_12_04_04_f,0.5
1,neutral,0.54,158,0,ma_za_1959_12_04_04_f,0.5
1,neutral,0.455,159,0,ma_za_1959_12_04_04_f,0.5
1,neutral,0.409,160,1,ma_za_1959_12_04_04_f,0.5
